Text,Block1Type,Block1Stim,Block1Corr,Block2Type,Block2Stim,Block2Corr,Block3Type,Block3Stim,Block3Corr,Instruction_loop.thisRepN,Instruction_loop.thisTrialN,Instruction_loop.thisN,Instruction_loop.thisIndex,Block1_loop.thisRepN,Block1_loop.thisTrialN,Block1_loop.thisN,Block1_loop.thisIndex,Block2_loop.thisRepN,Block2_loop.thisTrialN,Block2_loop.thisN,Block2_loop.thisIndex,Block3_loop.thisRepN,Block3_loop.thisTrialN,Block3_loop.thisN,Block3_loop.thisIndex,welcome_text1.started,welcome_text1.stopped,welcome_text2.started,welcome_text2.stopped,welcome_text3.started,welcome_text3.stopped,welcome_resp.keys,welcome_resp.rt,welcome_resp.started,welcome_resp.stopped,instruct_text1.started,instruct_text1.stopped,instruct_text2.started,instruct_text2.stopped,instruct_resp1.keys,instruct_resp1.rt,instruct_resp1.started,instruct_resp1.stopped,start_text1.started,start_text1.stopped,start_text2.started,start_text2.stopped,start_resp1.keys,start_resp1.rt,start_resp1.started,start_resp1.stopped,image1.started,image1.stopped,text1.started,text1.stopped,key_resp1.keys,key_resp1.corr,key_resp1.rt,key_resp1.started,key_resp1.stopped,trialCorrect,feedback_text1.started,feedback_text1.stopped,break_text1.started,break_text1.stopped,break_resp1.keys,break_resp1.rt,break_resp1.started,break_resp1.stopped,intructRemind_text1.started,intructRemind_text1.stopped,instructRemind_text2.started,instructRemind_text2.stopped,instructRemind_resp1.keys,instructRemind_resp1.rt,instructRemind_resp1.started,instructRemind_resp1.stopped,start_text3.started,start_text3.stopped,start_text4.started,start_text4.stopped,start_resp2.keys,start_resp2.rt,start_resp2.started,start_resp2.stopped,image2.started,image2.stopped,text2.started,text2.stopped,key_resp2.keys,key_resp2.corr,key_resp2.rt,key_resp2.started,key_resp2.stopped,feedback_text2.started,feedback_text2.stopped,break_text2.started,break_text2.stopped,break_resp2.keys,break_resp2.rt,break_resp2.started,break_resp2.stopped,start_text5.started,start_text5.stopped,start_text6.started,start_text6.stopped,start_resp3.keys,start_resp3.rt,start_resp3.started,start_resp3.stopped,image3.started,image3.stopped,text3.started,text3.stopped,key_resp3.keys,key_resp3.corr,key_resp3.rt,key_resp3.started,key_resp3.stopped,feedback_text3.started,feedback_text3.stopped,end_text1.started,end_text1.stopped,end_text2.started,end_text2.stopped,end_resp.keys,end_resp.rt,end_resp.started,end_resp.stopped,participant,sex,age,session,date,expName,psychopyVersion,frameRate,
,,,,,,,,,,,,,,,,,,,,,,,,,,15.499096298997756,None,15.499096298997756,None,15.499096298997756,None,return,804.999359202,15.499096298997756,None,,,,,,,,,,,,,,,,,,,,,,,,,,,,,,,,,,,,,,,,,,,,,,,,,,,,,,,,,,,,,,,,,,,,,,,,,,,,,,,,,,,,,,,,,,,,,,,11,Male,21,001,2021_Mar_09_2131,cal_abstract,2020.2.4,60.132766896104805,
"You will be presented with a series of images. It is your job to learn, through trial and error, whether the “Left” or “Right” arrow key should be pressed for each image.",,,,,,,,,,0,0,0,0,,,,,,,,,,,,,,,,,,,,,,,820.5537722410008,None,820.5537722410008,None,return,4.6774110439982906,820.5537722410008,None,,,,,,,,,,,,,,,,,,,,,,,,,,,,,,,,,,,,,,,,,,,,,,,,,,,,,,,,,,,,,,,,,,,,,,,,,,,,,,,,,,,,,,,11,Male,21,001,2021_Mar_09_2131,cal_abstract,2020.2.4,60.132766896104805,
"For some images you should always press “Left”, and for others you should always press “Right” arrow key.",,,,,,,,,,0,1,1,1,,,,,,,,,,,,,,,,,,,,,,,825.2538377909987,None,825.2538377909987,None,return,2.0570200660004048,825.2538377909987,None,,,,,,,,,,,,,,,,,,,,,,,,,,,,,,,,,,,,,,,,,,,,,,,,,,,,,,,,,,,,,,,,,,,,,,,,,,,,,,,,,,,,,,,11,Male,21,001,2021_Mar_09_2131,cal_abstract,2020.2.4,60.132766896104805,
Some images are special: the correct response is the opposite of the preceding correct response.,,,,,,,,,,0,2,2,2,,,,,,,,,,,,,,,,,,,,,,,827.354862971999,None,827.354862971999,None,return,15.71270847300184,827.354862971999,None,,,,,,,,,,,,,,,,,,,,,,,,,,,,,,,,,,,,,,,,,,,,,,,,,,,,,,,,,,,,,,,,,,,,,,,,,,,,,,,,,,,,,,,11,Male,21,001,2021_Mar_09_2131,cal_abstract,2020.2.4,60.132766896104805,
"That is, if the previous correct answer was “Left” then the correct response would now be “Right”.",,,,,,,,,,0,3,3,3,,,,,,,,,,,,,,,,,,,,,,,843.1061519569994,None,843.1061519569994,None,return,2.5928505999982008,843.1061519569994,None,,,,,,,,,,,,,,,,,,,,,,,,,,,,,,,,,,,,,,,,,,,,,,,,,,,,,,,,,,,,,,,,,,,,,,,,,,,,,,,,,,,,,,,11,Male,21,001,2021_Mar_09_2131,cal_abstract,2020.2.4,60.132766896104805,
"After each response, you will be told whether you got the item correct or incorrect.",,,,,,,,,,0,4,4,4,,,,,,,,,,,,,,,,,,,,,,,845.7395557439995,None,845.7395557439995,None,return,1.6953733650007052,845.7395557439995,None,,,,,,,,,,,,,,,,,,,,,,,,,,,,,,,,,,,,,,,,,,,,,,,,,,,,,,,,,,,,,,,,,,,,,,,,,,,,,,,,,,,,,,,11,Male,21,001,2021_Mar_09_2131,cal_abstract,2020.2.4,60.132766896104805,
"You can take as long as you like on each image, but the task will not continue until you press the “Left” or “Right” arrow key.",,,,,,,,,,0,5,5,5,,,,,,,,,,,,,,,,,,,,,,,847.4727757740002,None,847.4727757740002,None,return,1.912005695001426,847.4727757740002,None,,,,,,,,,,,,,,,,,,,,,,,,,,,,,,,,,,,,,,,,,,,,,,,,,,,,,,,,,,,,,,,,,,,,,,,,,,,,,,,,,,,,,,,11,Male,21,001,2021_Mar_09_2131,cal_abstract,2020.2.4,60.132766896104805,
"The experiment will have three blocks, each block will take approximately 10 minutes to complete.",,,,,,,,,,0,6,6,6,,,,,,,,,,,,,,,,,,,,,,,849.4230464040011,None,849.4230464040011,None,return,2.405508457999531,849.4230464040011,None,,,,,,,,,,,,,,,,,,,,,,,,,,,,,,,,,,,,,,,,,,,,,,,,,,,,,,,,,,,,,,,,,,,,,,,,,,,,,,,,,,,,,,,11,Male,21,001,2021_Mar_09_2131,cal_abstract,2020.2.4,60.132766896104805,
,,,,,,,,,,,,,,,,,,,,,,,,,,,,,,,,,,,,,,,,,,,,851.8565442889994,None,851.8565442889994,None,s,3.3071426499991503,851.8565442889994,None,,,,,,,,,,,,,,,,,,,,,,,,,,,,,,,,,,,,,,,,,,,,,,,,,,,,,,,,,,,,,,,,,,,,,,,,,,,,,,,11,Male,21,001,2021_Mar_09_2131,cal_abstract,2020.2.4,60.132766896104805,
,Fix1,stimuli/Healthy/33.jpg,right,,,,,,,,,,,0,0,0,0,,,,,,,,,,,,,,,,,,,,,,,,,,,,,,,,,,,855.2400751889982,None,855.2400751889982,None,left,0,2.09315277800124,855.2400751889982,None,0,857.3566071120003,None,,,,,,,,,,,,,,,,,,,,,,,,,,,,,,,,,,,,,,,,,,,,,,,,,,,,,,,,,,,,,,,,,,,11,Male,21,001,2021_Mar_09_2131,cal_abstract,2020.2.4,60.132766896104805,
,Fix1,stimuli/Healthy/6.jpg,right,,,,,,,,,,,0,1,1,1,,,,,,,,,,,,,,,,,,,,,,,,,,,,,,,,,,,858.1235820420006,None,858.1235820420006,None,right,1,0.7326446100014437,858.1235820420006,None,1,858.8903534319979,None,,,,,,,,,,,,,,,,,,,,,,,,,,,,,,,,,,,,,,,,,,,,,,,,,,,,,,,,,,,,,,,,,,,11,Male,21,001,2021_Mar_09_2131,cal_abstract,2020.2.4,60.132766896104805,
,Fix2,stimuli/Old/8.jpg,left,,,,,,,,,,,0,2,2,2,,,,,,,,,,,,,,,,,,,,,,,,,,,,,,,,,,,859.657234508999,None,859.657234508999,None,left,1,1.535813673002849,859.657234508999,None,1,861.2237684139982,None,,,,,,,,,,,,,,,,,,,,,,,,,,,,,,,,,,,,,,,,,,,,,,,,,,,,,,,,,,,,,,,,,,,11,Male,21,001,2021_Mar_09_2131,cal_abstract,2020.2.4,60.132766896104805,
,Fix1,stimuli/Healthy/3.jpg,right,,,,,,,,,,,0,3,3,3,,,,,,,,,,,,,,,,,,,,,,,,,,,,,,,,,,,861.9905395669994,None,861.9905395669994,None,right,1,1.4892719029994623,861.9905395669994,None,1,863.5073054140012,None,,,,,,,,,,,,,,,,,,,,,,,,,,,,,,,,,,,,,,,,,,,,,,,,,,,,,,,,,,,,,,,,,,,11,Male,21,001,2021_Mar_09_2131,cal_abstract,2020.2.4,60.132766896104805,
,Fix2,stimuli/Old/27.jpg,left,,,,,,,,,,,0,4,4,4,,,,,,,,,,,,,,,,,,,,,,,,,,,,,,,,,,,864.2740869869995,None,864.2740869869995,None,left,1,2.6816627500011236,864.2740869869995,None,1,866.974142897001,None,,,,,,,,,,,,,,,,,,,,,,,,,,,,,,,,,,,,,,,,,,,,,,,,,,,,,,,,,,,,,,,,,,,11,Male,21,001,2021_Mar_09_2131,cal_abstract,2020.2.4,60.132766896104805,
,Cond,stimuli/Wealth/56.jpg,right,,,,,,,,,,,0,5,5,5,,,,,,,,,,,,,,,,,,,,,,,,,,,,,,,,,,,867.7411259740002,None,867.7411259740002,None,right,1,2.080379912000353,867.7411259740002,None,1,869.8409956119976,None,,,,,,,,,,,,,,,,,,,,,,,,,,,,,,,,,,,,,,,,,,,,,,,,,,,,,,,,,,,,,,,,,,,11,Male,21,001,2021_Mar_09_2131,cal_abstract,2020.2.4,60.132766896104805,
,Fix2,stimuli/Old/45.jpg,left,,,,,,,,,,,0,6,6,6,,,,,,,,,,,,,,,,,,,,,,,,,,,,,,,,,,,870.6092362679992,None,870.6092362679992,None,left,1,2.822204165000585,870.6092362679992,None,1,873.457941179,None,,,,,,,,,,,,,,,,,,,,,,,,,,,,,,,,,,,,,,,,,,,,,,,,,,,,,,,,,,,,,,,,,,,11,Male,21,001,2021_Mar_09_2131,cal_abstract,2020.2.4,60.132766896104805,
,Fix2,stimuli/Old/52.jpg,left,,,,,,,,,,,0,7,7,7,,,,,,,,,,,,,,,,,,,,,,,,,,,,,,,,,,,874.2247674869977,None,874.2247674869977,None,right,0,2.172177073000057,874.2247674869977,None,0,876.4245618319983,None,,,,,,,,,,,,,,,,,,,,,,,,,,,,,,,,,,,,,,,,,,,,,,,,,,,,,,,,,,,,,,,,,,,11,Male,21,001,2021_Mar_09_2131,cal_abstract,2020.2.4,60.132766896104805,
,Fix1,stimuli/Healthy/37.jpg,right,,,,,,,,,,,0,8,8,8,,,,,,,,,,,,,,,,,,,,,,,,,,,,,,,,,,,877.1914450839977,None,877.1914450839977,None,right,1,0.9753474470016954,877.1914450839977,None,1,878.1914885990009,None,,,,,,,,,,,,,,,,,,,,,,,,,,,,,,,,,,,,,,,,,,,,,,,,,,,,,,,,,,,,,,,,,,,11,Male,21,001,2021_Mar_09_2131,cal_abstract,2020.2.4,60.132766896104805,
,Fix1,stimuli/Healthy/17.jpg,right,,,,,,,,,,,0,9,9,9,,,,,,,,,,,,,,,,,,,,,,,,,,,,,,,,,,,878.9585062719998,None,878.9585062719998,None,right,1,0.6813274849992013,878.9585062719998,None,1,879.6584552439999,None,,,,,,,,,,,,,,,,,,,,,,,,,,,,,,,,,,,,,,,,,,,,,,,,,,,,,,,,,,,,,,,,,,,11,Male,21,001,2021_Mar_09_2131,cal_abstract,2020.2.4,60.132766896104805,
,Fix1,stimuli/Healthy/51.jpg,right,,,,,,,,,,,0,10,10,10,,,,,,,,,,,,,,,,,,,,,,,,,,,,,,,,,,,880.425144457,None,880.425144457,None,right,1,0.6343639400001848,880.425144457,None,1,881.0915207489998,None,,,,,,,,,,,,,,,,,,,,,,,,,,,,,,,,,,,,,,,,,,,,,,,,,,,,,,,,,,,,,,,,,,,11,Male,21,001,2021_Mar_09_2131,cal_abstract,2020.2.4,60.132766896104805,
,Fix2,stimuli/Old/55.jpg,left,,,,,,,,,,,0,11,11,11,,,,,,,,,,,,,,,,,,,,,,,,,,,,,,,,,,,881.8586709820011,None,881.8586709820011,None,left,1,1.6988704020004661,881.8586709820011,None,1,883.5753395819993,None,,,,,,,,,,,,,,,,,,,,,,,,,,,,,,,,,,,,,,,,,,,,,,,,,,,,,,,,,,,,,,,,,,,11,Male,21,001,2021_Mar_09_2131,cal_abstract,2020.2.4,60.132766896104805,
,Cond,stimuli/Wealth/43.jpg,right,,,,,,,,,,,0,12,12,12,,,,,,,,,,,,,,,,,,,,,,,,,,,,,,,,,,,884.3421108469993,None,884.3421108469993,None,left,0,0.7092754020013672,884.3421108469993,None,0,885.0756445789993,None,,,,,,,,,,,,,,,,,,,,,,,,,,,,,,,,,,,,,,,,,,,,,,,,,,,,,,,,,,,,,,,,,,,11,Male,21,001,2021_Mar_09_2131,cal_abstract,2020.2.4,60.132766896104805,
,Cond,stimuli/Wealth/34.jpg,left,,,,,,,,,,,0,13,13,13,,,,,,,,,,,,,,,,,,,,,,,,,,,,,,,,,,,885.8424355870011,None,885.8424355870011,None,left,1,1.3176802300004056,885.8424355870011,None,1,887.1922258919985,None,,,,,,,,,,,,,,,,,,,,,,,,,,,,,,,,,,,,,,,,,,,,,,,,,,,,,,,,,,,,,,,,,,,11,Male,21,001,2021_Mar_09_2131,cal_abstract,2020.2.4,60.132766896104805,
,Fix2,stimuli/Old/41.jpg,left,,,,,,,,,,,0,14,14,14,,,,,,,,,,,,,,,,,,,,,,,,,,,,,,,,,,,887.959169832,None,887.959169832,None,left,1,1.356799791999947,887.959169832,None,1,889.3421647169998,None,,,,,,,,,,,,,,,,,,,,,,,,,,,,,,,,,,,,,,,,,,,,,,,,,,,,,,,,,,,,,,,,,,,11,Male,21,001,2021_Mar_09_2131,cal_abstract,2020.2.4,60.132766896104805,
,Cond,stimuli/Wealth/49.jpg,right,,,,,,,,,,,0,15,15,15,,,,,,,,,,,,,,,,,,,,,,,,,,,,,,,,,,,890.109183321998,None,890.109183321998,None,right,1,1.6417966600020009,890.109183321998,None,1,891.7758583139985,None,,,,,,,,,,,,,,,,,,,,,,,,,,,,,,,,,,,,,,,,,,,,,,,,,,,,,,,,,,,,,,,,,,,11,Male,21,001,2021_Mar_09_2131,cal_abstract,2020.2.4,60.132766896104805,
,Fix2,stimuli/Old/22.jpg,left,,,,,,,,,,,0,16,16,16,,,,,,,,,,,,,,,,,,,,,,,,,,,,,,,,,,,892.542673781998,None,892.542673781998,None,right,0,1.9711655450009857,892.542673781998,None,0,894.5426328520007,None,,,,,,,,,,,,,,,,,,,,,,,,,,,,,,,,,,,,,,,,,,,,,,,,,,,,,,,,,,,,,,,,,,,11,Male,21,001,2021_Mar_09_2131,cal_abstract,2020.2.4,60.132766896104805,
,Fix2,stimuli/Old/59.jpg,left,,,,,,,,,,,0,17,17,17,,,,,,,,,,,,,,,,,,,,,,,,,,,,,,,,,,,895.309628316998,None,895.309628316998,None,left,1,1.0540767749989755,895.309628316998,None,1,896.3925131619981,None,,,,,,,,,,,,,,,,,,,,,,,,,,,,,,,,,,,,,,,,,,,,,,,,,,,,,,,,,,,,,,,,,,,11,Male,21,001,2021_Mar_09_2131,cal_abstract,2020.2.4,60.132766896104805,
,Fix2,stimuli/Old/14.jpg,left,,,,,,,,,,,0,18,18,18,,,,,,,,,,,,,,,,,,,,,,,,,,,,,,,,,,,897.1595424170009,None,897.1595424170009,None,left,1,2.586973784997099,897.1595424170009,None,1,899.7751333849992,None,,,,,,,,,,,,,,,,,,,,,,,,,,,,,,,,,,,,,,,,,,,,,,,,,,,,,,,,,,,,,,,,,,,11,Male,21,001,2021_Mar_09_2131,cal_abstract,2020.2.4,60.132766896104805,
,Fix1,stimuli/Healthy/32.jpg,right,,,,,,,,,,,0,19,19,19,,,,,,,,,,,,,,,,,,,,,,,,,,,,,,,,,,,900.543374773999,None,900.543374773999,None,right,1,1.0799188419987331,900.543374773999,None,1,901.6433041370001,None,,,,,,,,,,,,,,,,,,,,,,,,,,,,,,,,,,,,,,,,,,,,,,,,,,,,,,,,,,,,,,,,,,,11,Male,21,001,2021_Mar_09_2131,cal_abstract,2020.2.4,60.132766896104805,
,Fix1,stimuli/Healthy/35.jpg,right,,,,,,,,,,,0,20,20,20,,,,,,,,,,,,,,,,,,,,,,,,,,,,,,,,,,,902.4103290389976,None,902.4103290389976,None,right,1,3.3462043200015614,902.4103290389976,None,1,905.7767586169975,None,,,,,,,,,,,,,,,,,,,,,,,,,,,,,,,,,,,,,,,,,,,,,,,,,,,,,,,,,,,,,,,,,,,11,Male,21,001,2021_Mar_09_2131,cal_abstract,2020.2.4,60.132766896104805,
,Fix1,stimuli/Healthy/55.jpg,right,,,,,,,,,,,0,21,21,21,,,,,,,,,,,,,,,,,,,,,,,,,,,,,,,,,,,906.5425905310003,None,906.5425905310003,None,right,1,0.7225294960007886,906.5425905310003,None,1,907.2921294529988,None,,,,,,,,,,,,,,,,,,,,,,,,,,,,,,,,,,,,,,,,,,,,,,,,,,,,,,,,,,,,,,,,,,,11,Male,21,001,2021_Mar_09_2131,cal_abstract,2020.2.4,60.132766896104805,
,Fix1,stimuli/Healthy/40.jpg,right,,,,,,,,,,,0,22,22,22,,,,,,,,,,,,,,,,,,,,,,,,,,,,,,,,,,,908.0605987739982,None,908.0605987739982,None,right,1,1.1654115349992935,908.0605987739982,None,1,909.2438626820003,None,,,,,,,,,,,,,,,,,,,,,,,,,,,,,,,,,,,,,,,,,,,,,,,,,,,,,,,,,,,,,,,,,,,11,Male,21,001,2021_Mar_09_2131,cal_abstract,2020.2.4,60.132766896104805,
,Cond,stimuli/Wealth/28.jpg,left,,,,,,,,,,,0,23,23,23,,,,,,,,,,,,,,,,,,,,,,,,,,,,,,,,,,,910.0102703240009,None,910.0102703240009,None,left,1,1.031715577999421,910.0102703240009,None,1,911.0603282669981,None,,,,,,,,,,,,,,,,,,,,,,,,,,,,,,,,,,,,,,,,,,,,,,,,,,,,,,,,,,,,,,,,,,,11,Male,21,001,2021_Mar_09_2131,cal_abstract,2020.2.4,60.132766896104805,
,Cond,stimuli/Wealth/9.jpg,right,,,,,,,,,,,0,24,24,24,,,,,,,,,,,,,,,,,,,,,,,,,,,,,,,,,,,911.8275914389997,None,911.8275914389997,None,left,0,2.5780534069999703,911.8275914389997,None,0,914.4275386070003,None,,,,,,,,,,,,,,,,,,,,,,,,,,,,,,,,,,,,,,,,,,,,,,,,,,,,,,,,,,,,,,,,,,,11,Male,21,001,2021_Mar_09_2131,cal_abstract,2020.2.4,60.132766896104805,
,Fix1,stimuli/Healthy/18.jpg,right,,,,,,,,,,,0,25,25,25,,,,,,,,,,,,,,,,,,,,,,,,,,,,,,,,,,,915.1943799270011,None,915.1943799270011,None,right,1,0.6642542500012496,915.1943799270011,None,1,915.8774898289994,None,,,,,,,,,,,,,,,,,,,,,,,,,,,,,,,,,,,,,,,,,,,,,,,,,,,,,,,,,,,,,,,,,,,11,Male,21,001,2021_Mar_09_2131,cal_abstract,2020.2.4,60.132766896104805,
,Fix1,stimuli/Healthy/12.jpg,right,,,,,,,,,,,0,26,26,26,,,,,,,,,,,,,,,,,,,,,,,,,,,,,,,,,,,916.6440130619994,None,916.6440130619994,None,left,0,4.408750449998479,916.6440130619994,None,0,921.0778269820003,None,,,,,,,,,,,,,,,,,,,,,,,,,,,,,,,,,,,,,,,,,,,,,,,,,,,,,,,,,,,,,,,,,,,11,Male,21,001,2021_Mar_09_2131,cal_abstract,2020.2.4,60.132766896104805,
,Fix1,stimuli/Healthy/28.jpg,right,,,,,,,,,,,0,27,27,27,,,,,,,,,,,,,,,,,,,,,,,,,,,,,,,,,,,921.8446816989999,None,921.8446816989999,None,right,1,0.7829327850013215,921.8446816989999,None,1,922.6434100980005,None,,,,,,,,,,,,,,,,,,,,,,,,,,,,,,,,,,,,,,,,,,,,,,,,,,,,,,,,,,,,,,,,,,,11,Male,21,001,2021_Mar_09_2131,cal_abstract,2020.2.4,60.132766896104805,
,Fix1,stimuli/Healthy/2.jpg,right,,,,,,,,,,,0,28,28,28,,,,,,,,,,,,,,,,,,,,,,,,,,,,,,,,,,,923.411432932,None,923.411432932,None,right,1,0.991750831999525,923.411432932,None,1,924.4269946519998,None,,,,,,,,,,,,,,,,,,,,,,,,,,,,,,,,,,,,,,,,,,,,,,,,,,,,,,,,,,,,,,,,,,,11,Male,21,001,2021_Mar_09_2131,cal_abstract,2020.2.4,60.132766896104805,
,Fix1,stimuli/Healthy/63.jpg,right,,,,,,,,,,,0,29,29,29,,,,,,,,,,,,,,,,,,,,,,,,,,,,,,,,,,,925.1950100319991,None,925.1950100319991,None,right,1,1.61923221500183,925.1950100319991,None,1,926.844094617998,None,,,,,,,,,,,,,,,,,,,,,,,,,,,,,,,,,,,,,,,,,,,,,,,,,,,,,,,,,,,,,,,,,,,11,Male,21,001,2021_Mar_09_2131,cal_abstract,2020.2.4,60.132766896104805,
,Fix2,stimuli/Old/3.jpg,left,,,,,,,,,,,0,30,30,30,,,,,,,,,,,,,,,,,,,,,,,,,,,,,,,,,,,927.6116708419977,None,927.6116708419977,None,left,1,3.855392789999314,927.6116708419977,None,1,931.4953034770006,None,,,,,,,,,,,,,,,,,,,,,,,,,,,,,,,,,,,,,,,,,,,,,,,,,,,,,,,,,,,,,,,,,,,11,Male,21,001,2021_Mar_09_2131,cal_abstract,2020.2.4,60.132766896104805,
,Cond,stimuli/Wealth/57.jpg,right,,,,,,,,,,,0,31,31,31,,,,,,,,,,,,,,,,,,,,,,,,,,,,,,,,,,,932.262171249,None,932.262171249,None,left,0,2.072359649999271,932.262171249,None,0,934.3612359049985,None,,,,,,,,,,,,,,,,,,,,,,,,,,,,,,,,,,,,,,,,,,,,,,,,,,,,,,,,,,,,,,,,,,,11,Male,21,001,2021_Mar_09_2131,cal_abstract,2020.2.4,60.132766896104805,
,Fix1,stimuli/Healthy/52.jpg,right,,,,,,,,,,,0,32,32,32,,,,,,,,,,,,,,,,,,,,,,,,,,,,,,,,,,,935.1291082370008,None,935.1291082370008,None,right,1,0.53241962699758,935.1291082370008,None,1,935.6789240319995,None,,,,,,,,,,,,,,,,,,,,,,,,,,,,,,,,,,,,,,,,,,,,,,,,,,,,,,,,,,,,,,,,,,,11,Male,21,001,2021_Mar_09_2131,cal_abstract,2020.2.4,60.132766896104805,
,Fix2,stimuli/Old/9.jpg,left,,,,,,,,,,,0,33,33,33,,,,,,,,,,,,,,,,,,,,,,,,,,,,,,,,,,,936.445651916998,None,936.445651916998,None,left,1,1.0675351019999653,936.445651916998,None,1,937.5457018569978,None,,,,,,,,,,,,,,,,,,,,,,,,,,,,,,,,,,,,,,,,,,,,,,,,,,,,,,,,,,,,,,,,,,,11,Male,21,001,2021_Mar_09_2131,cal_abstract,2020.2.4,60.132766896104805,
,Fix2,stimuli/Old/2.jpg,left,,,,,,,,,,,0,34,34,34,,,,,,,,,,,,,,,,,,,,,,,,,,,,,,,,,,,938.3126982489994,None,938.3126982489994,None,left,1,1.5003507700021146,938.3126982489994,None,1,939.845837582001,None,,,,,,,,,,,,,,,,,,,,,,,,,,,,,,,,,,,,,,,,,,,,,,,,,,,,,,,,,,,,,,,,,,,11,Male,21,001,2021_Mar_09_2131,cal_abstract,2020.2.4,60.132766896104805,
,Cond,stimuli/Wealth/15.jpg,right,,,,,,,,,,,0,35,35,35,,,,,,,,,,,,,,,,,,,,,,,,,,,,,,,,,,,940.613565347001,None,940.613565347001,None,right,1,0.8905180349975126,940.613565347001,None,1,941.5294979770006,None,,,,,,,,,,,,,,,,,,,,,,,,,,,,,,,,,,,,,,,,,,,,,,,,,,,,,,,,,,,,,,,,,,,11,Male,21,001,2021_Mar_09_2131,cal_abstract,2020.2.4,60.132766896104805,
,Fix1,stimuli/Healthy/66.jpg,right,,,,,,,,,,,0,36,36,36,,,,,,,,,,,,,,,,,,,,,,,,,,,,,,,,,,,942.2955766890009,None,942.2955766890009,None,right,1,0.7484623450000072,942.2955766890009,None,1,943.0627808440004,None,,,,,,,,,,,,,,,,,,,,,,,,,,,,,,,,,,,,,,,,,,,,,,,,,,,,,,,,,,,,,,,,,,,11,Male,21,001,2021_Mar_09_2131,cal_abstract,2020.2.4,60.132766896104805,
,Fix2,stimuli/Old/10.jpg,left,,,,,,,,,,,0,37,37,37,,,,,,,,,,,,,,,,,,,,,,,,,,,,,,,,,,,943.8296010970007,None,943.8296010970007,None,left,1,0.9143967230011185,943.8296010970007,None,1,944.762644462,None,,,,,,,,,,,,,,,,,,,,,,,,,,,,,,,,,,,,,,,,,,,,,,,,,,,,,,,,,,,,,,,,,,,11,Male,21,001,2021_Mar_09_2131,cal_abstract,2020.2.4,60.132766896104805,
,Fix1,stimuli/Healthy/47.jpg,right,,,,,,,,,,,0,38,38,38,,,,,,,,,,,,,,,,,,,,,,,,,,,,,,,,,,,945.5298395469981,None,945.5298395469981,None,right,1,0.8399370529987209,945.5298395469981,None,1,946.396310442,None,,,,,,,,,,,,,,,,,,,,,,,,,,,,,,,,,,,,,,,,,,,,,,,,,,,,,,,,,,,,,,,,,,,11,Male,21,001,2021_Mar_09_2131,cal_abstract,2020.2.4,60.132766896104805,
,Cond,stimuli/Wealth/12.jpg,left,,,,,,,,,,,0,39,39,39,,,,,,,,,,,,,,,,,,,,,,,,,,,,,,,,,,,947.1799955419992,None,947.1799955419992,None,left,1,0.7276197350001894,947.1799955419992,None,1,947.9297861769992,None,,,,,,,,,,,,,,,,,,,,,,,,,,,,,,,,,,,,,,,,,,,,,,,,,,,,,,,,,,,,,,,,,,,11,Male,21,001,2021_Mar_09_2131,cal_abstract,2020.2.4,60.132766896104805,
,Fix2,stimuli/Old/50.jpg,left,,,,,,,,,,,0,40,40,40,,,,,,,,,,,,,,,,,,,,,,,,,,,,,,,,,,,948.6964421519988,None,948.6964421519988,None,left,1,0.85605357500026,948.6964421519988,None,1,949.5798388740004,None,,,,,,,,,,,,,,,,,,,,,,,,,,,,,,,,,,,,,,,,,,,,,,,,,,,,,,,,,,,,,,,,,,,11,Male,21,001,2021_Mar_09_2131,cal_abstract,2020.2.4,60.132766896104805,
,Fix1,stimuli/Healthy/14.jpg,right,,,,,,,,,,,0,41,41,41,,,,,,,,,,,,,,,,,,,,,,,,,,,,,,,,,,,950.349025178999,None,950.349025178999,None,right,1,0.8014937300031306,950.349025178999,None,1,951.1799863470005,None,,,,,,,,,,,,,,,,,,,,,,,,,,,,,,,,,,,,,,,,,,,,,,,,,,,,,,,,,,,,,,,,,,,11,Male,21,001,2021_Mar_09_2131,cal_abstract,2020.2.4,60.132766896104805,
,Fix2,stimuli/Old/21.jpg,left,,,,,,,,,,,0,42,42,42,,,,,,,,,,,,,,,,,,,,,,,,,,,,,,,,,,,951.9465727290008,None,951.9465727290008,None,left,1,1.1087297830017633,951.9465727290008,None,1,953.0801152040003,None,,,,,,,,,,,,,,,,,,,,,,,,,,,,,,,,,,,,,,,,,,,,,,,,,,,,,,,,,,,,,,,,,,,11,Male,21,001,2021_Mar_09_2131,cal_abstract,2020.2.4,60.132766896104805,
,Fix2,stimuli/Old/19.jpg,left,,,,,,,,,,,0,43,43,43,,,,,,,,,,,,,,,,,,,,,,,,,,,,,,,,,,,953.846857231998,None,953.846857231998,None,left,1,1.4671738149991143,953.846857231998,None,1,955.3468972589981,None,,,,,,,,,,,,,,,,,,,,,,,,,,,,,,,,,,,,,,,,,,,,,,,,,,,,,,,,,,,,,,,,,,,11,Male,21,001,2021_Mar_09_2131,cal_abstract,2020.2.4,60.132766896104805,
,Fix2,stimuli/Old/11.jpg,left,,,,,,,,,,,0,44,44,44,,,,,,,,,,,,,,,,,,,,,,,,,,,,,,,,,,,956.1137760839993,None,956.1137760839993,None,right,0,0.6783483299986983,956.1137760839993,None,0,956.8137359869979,None,,,,,,,,,,,,,,,,,,,,,,,,,,,,,,,,,,,,,,,,,,,,,,,,,,,,,,,,,,,,,,,,,,,11,Male,21,001,2021_Mar_09_2131,cal_abstract,2020.2.4,60.132766896104805,
,Fix2,stimuli/Old/58.jpg,left,,,,,,,,,,,0,45,45,45,,,,,,,,,,,,,,,,,,,,,,,,,,,,,,,,,,,957.5806440419983,None,957.5806440419983,None,left,1,0.8484386629970686,957.5806440419983,None,1,958.4472419769991,None,,,,,,,,,,,,,,,,,,,,,,,,,,,,,,,,,,,,,,,,,,,,,,,,,,,,,,,,,,,,,,,,,,,11,Male,21,001,2021_Mar_09_2131,cal_abstract,2020.2.4,60.132766896104805,
,Fix2,stimuli/Old/6.jpg,left,,,,,,,,,,,0,46,46,46,,,,,,,,,,,,,,,,,,,,,,,,,,,,,,,,,,,959.2139784789979,None,959.2139784789979,None,left,1,0.783806513001764,959.2139784789979,None,1,960.0306519869991,None,,,,,,,,,,,,,,,,,,,,,,,,,,,,,,,,,,,,,,,,,,,,,,,,,,,,,,,,,,,,,,,,,,,11,Male,21,001,2021_Mar_09_2131,cal_abstract,2020.2.4,60.132766896104805,
,Fix2,stimuli/Old/26.jpg,left,,,,,,,,,,,0,47,47,47,,,,,,,,,,,,,,,,,,,,,,,,,,,,,,,,,,,960.7974073740006,None,960.7974073740006,None,left,1,1.814402814998175,960.7974073740006,None,1,962.6308782970009,None,,,,,,,,,,,,,,,,,,,,,,,,,,,,,,,,,,,,,,,,,,,,,,,,,,,,,,,,,,,,,,,,,,,11,Male,21,001,2021_Mar_09_2131,cal_abstract,2020.2.4,60.132766896104805,
,Fix2,stimuli/Old/0.jpg,left,,,,,,,,,,,0,48,48,48,,,,,,,,,,,,,,,,,,,,,,,,,,,,,,,,,,,963.3978471369992,None,963.3978471369992,None,left,1,4.924325410000165,963.3978471369992,None,1,968.3475080520002,None,,,,,,,,,,,,,,,,,,,,,,,,,,,,,,,,,,,,,,,,,,,,,,,,,,,,,,,,,,,,,,,,,,,11,Male,21,001,2021_Mar_09_2131,cal_abstract,2020.2.4,60.132766896104805,
,Fix1,stimuli/Healthy/49.jpg,right,,,,,,,,,,,0,49,49,49,,,,,,,,,,,,,,,,,,,,,,,,,,,,,,,,,,,969.114398062,None,969.114398062,None,right,1,15.79765998700168,969.114398062,None,1,984.9322513519983,None,,,,,,,,,,,,,,,,,,,,,,,,,,,,,,,,,,,,,,,,,,,,,,,,,,,,,,,,,,,,,,,,,,,11,Male,21,001,2021_Mar_09_2131,cal_abstract,2020.2.4,60.132766896104805,
,Fix1,stimuli/Healthy/62.jpg,right,,,,,,,,,,,0,50,50,50,,,,,,,,,,,,,,,,,,,,,,,,,,,,,,,,,,,985.6990713539999,None,985.6990713539999,None,right,1,2.835572179999872,985.6990713539999,None,1,988.565605896998,None,,,,,,,,,,,,,,,,,,,,,,,,,,,,,,,,,,,,,,,,,,,,,,,,,,,,,,,,,,,,,,,,,,,11,Male,21,001,2021_Mar_09_2131,cal_abstract,2020.2.4,60.132766896104805,
,Fix1,stimuli/Healthy/21.jpg,right,,,,,,,,,,,0,51,51,51,,,,,,,,,,,,,,,,,,,,,,,,,,,,,,,,,,,989.3494480320005,None,989.3494480320005,None,right,1,0.7252528019998863,989.3494480320005,None,1,990.0980055869986,None,,,,,,,,,,,,,,,,,,,,,,,,,,,,,,,,,,,,,,,,,,,,,,,,,,,,,,,,,,,,,,,,,,,11,Male,21,001,2021_Mar_09_2131,cal_abstract,2020.2.4,60.132766896104805,
,Cond,stimuli/Wealth/58.jpg,left,,,,,,,,,,,0,52,52,52,,,,,,,,,,,,,,,,,,,,,,,,,,,,,,,,,,,990.866268851998,None,990.866268851998,None,left,1,3.6446263500001805,990.866268851998,None,1,994.5329361189979,None,,,,,,,,,,,,,,,,,,,,,,,,,,,,,,,,,,,,,,,,,,,,,,,,,,,,,,,,,,,,,,,,,,,11,Male,21,001,2021_Mar_09_2131,cal_abstract,2020.2.4,60.132766896104805,
,Fix2,stimuli/Old/25.jpg,left,,,,,,,,,,,0,53,53,53,,,,,,,,,,,,,,,,,,,,,,,,,,,,,,,,,,,995.2998535420011,None,995.2998535420011,None,left,1,1.556158970000979,995.2998535420011,None,1,996.8830155819996,None,,,,,,,,,,,,,,,,,,,,,,,,,,,,,,,,,,,,,,,,,,,,,,,,,,,,,,,,,,,,,,,,,,,11,Male,21,001,2021_Mar_09_2131,cal_abstract,2020.2.4,60.132766896104805,
,Fix1,stimuli/Healthy/9.jpg,right,,,,,,,,,,,0,54,54,54,,,,,,,,,,,,,,,,,,,,,,,,,,,,,,,,,,,997.6496451769999,None,997.6496451769999,None,right,1,0.6223245069995755,997.6496451769999,None,1,998.2995172890005,None,,,,,,,,,,,,,,,,,,,,,,,,,,,,,,,,,,,,,,,,,,,,,,,,,,,,,,,,,,,,,,,,,,,11,Male,21,001,2021_Mar_09_2131,cal_abstract,2020.2.4,60.132766896104805,
,Fix2,stimuli/Old/24.jpg,left,,,,,,,,,,,0,55,55,55,,,,,,,,,,,,,,,,,,,,,,,,,,,,,,,,,,,999.0666152320009,None,999.0666152320009,None,left,1,1.5712351400034095,999.0666152320009,None,1,1000.6666805540008,None,,,,,,,,,,,,,,,,,,,,,,,,,,,,,,,,,,,,,,,,,,,,,,,,,,,,,,,,,,,,,,,,,,,11,Male,21,001,2021_Mar_09_2131,cal_abstract,2020.2.4,60.132766896104805,
,Fix2,stimuli/Old/29.jpg,left,,,,,,,,,,,0,56,56,56,,,,,,,,,,,,,,,,,,,,,,,,,,,,,,,,,,,1001.4332581470007,None,1001.4332581470007,None,left,1,1.1624297019989172,1001.4332581470007,None,1,1002.6167911269986,None,,,,,,,,,,,,,,,,,,,,,,,,,,,,,,,,,,,,,,,,,,,,,,,,,,,,,,,,,,,,,,,,,,,11,Male,21,001,2021_Mar_09_2131,cal_abstract,2020.2.4,60.132766896104805,
,Fix1,stimuli/Healthy/58.jpg,right,,,,,,,,,,,0,57,57,57,,,,,,,,,,,,,,,,,,,,,,,,,,,,,,,,,,,1003.384020491998,None,1003.384020491998,None,right,1,0.6495728730005794,1003.384020491998,None,1,1004.0504830889986,None,,,,,,,,,,,,,,,,,,,,,,,,,,,,,,,,,,,,,,,,,,,,,,,,,,,,,,,,,,,,,,,,,,,11,Male,21,001,2021_Mar_09_2131,cal_abstract,2020.2.4,60.132766896104805,
,Cond,stimuli/Wealth/6.jpg,left,,,,,,,,,,,0,58,58,58,,,,,,,,,,,,,,,,,,,,,,,,,,,,,,,,,,,1004.8170540389983,None,1004.8170540389983,None,left,1,3.7336179329977313,1004.8170540389983,None,1,1008.5834995639998,None,,,,,,,,,,,,,,,,,,,,,,,,,,,,,,,,,,,,,,,,,,,,,,,,,,,,,,,,,,,,,,,,,,,11,Male,21,001,2021_Mar_09_2131,cal_abstract,2020.2.4,60.132766896104805,
,Fix2,stimuli/Old/40.jpg,left,,,,,,,,,,,0,59,59,59,,,,,,,,,,,,,,,,,,,,,,,,,,,,,,,,,,,1009.3527082740002,None,1009.3527082740002,None,left,1,1.1025074919998588,1009.3527082740002,None,1,1010.4841201540003,None,,,,,,,,,,,,,,,,,,,,,,,,,,,,,,,,,,,,,,,,,,,,,,,,,,,,,,,,,,,,,,,,,,,11,Male,21,001,2021_Mar_09_2131,cal_abstract,2020.2.4,60.132766896104805,
,Fix1,stimuli/Healthy/44.jpg,right,,,,,,,,,,,0,60,60,60,,,,,,,,,,,,,,,,,,,,,,,,,,,,,,,,,,,1011.2508394119977,None,1011.2508394119977,None,right,1,0.5561298330030695,1011.2508394119977,None,1,1011.8340510470007,None,,,,,,,,,,,,,,,,,,,,,,,,,,,,,,,,,,,,,,,,,,,,,,,,,,,,,,,,,,,,,,,,,,,11,Male,21,001,2021_Mar_09_2131,cal_abstract,2020.2.4,60.132766896104805,
,Fix1,stimuli/Healthy/39.jpg,right,,,,,,,,,,,0,61,61,61,,,,,,,,,,,,,,,,,,,,,,,,,,,,,,,,,,,1012.6009092370005,None,1012.6009092370005,None,left,0,5.561336991999269,1012.6009092370005,None,0,1018.1845773919995,None,,,,,,,,,,,,,,,,,,,,,,,,,,,,,,,,,,,,,,,,,,,,,,,,,,,,,,,,,,,,,,,,,,,11,Male,21,001,2021_Mar_09_2131,cal_abstract,2020.2.4,60.132766896104805,
,Fix2,stimuli/Old/4.jpg,left,,,,,,,,,,,0,62,62,62,,,,,,,,,,,,,,,,,,,,,,,,,,,,,,,,,,,1018.9514730039991,None,1018.9514730039991,None,left,1,2.540149461998226,1018.9514730039991,None,1,1021.5180849040007,None,,,,,,,,,,,,,,,,,,,,,,,,,,,,,,,,,,,,,,,,,,,,,,,,,,,,,,,,,,,,,,,,,,,11,Male,21,001,2021_Mar_09_2131,cal_abstract,2020.2.4,60.132766896104805,
,Cond,stimuli/Wealth/1.jpg,right,,,,,,,,,,,0,63,63,63,,,,,,,,,,,,,,,,,,,,,,,,,,,,,,,,,,,1022.3018365169992,None,1022.3018365169992,None,right,1,2.509583554998244,1022.3018365169992,None,1,1024.8350226490002,None,,,,,,,,,,,,,,,,,,,,,,,,,,,,,,,,,,,,,,,,,,,,,,,,,,,,,,,,,,,,,,,,,,,11,Male,21,001,2021_Mar_09_2131,cal_abstract,2020.2.4,60.132766896104805,
,Cond,stimuli/Wealth/24.jpg,left,,,,,,,,,,,0,64,64,64,,,,,,,,,,,,,,,,,,,,,,,,,,,,,,,,,,,1025.6017362069979,None,1025.6017362069979,None,right,0,6.423636342999089,1025.6017362069979,None,0,1032.0519255889994,None,,,,,,,,,,,,,,,,,,,,,,,,,,,,,,,,,,,,,,,,,,,,,,,,,,,,,,,,,,,,,,,,,,,11,Male,21,001,2021_Mar_09_2131,cal_abstract,2020.2.4,60.132766896104805,
,Cond,stimuli/Wealth/32.jpg,right,,,,,,,,,,,0,65,65,65,,,,,,,,,,,,,,,,,,,,,,,,,,,,,,,,,,,1032.8191249289994,None,1032.8191249289994,None,left,0,0.9831342529978429,1032.8191249289994,None,0,1033.8356342219995,None,,,,,,,,,,,,,,,,,,,,,,,,,,,,,,,,,,,,,,,,,,,,,,,,,,,,,,,,,,,,,,,,,,,11,Male,21,001,2021_Mar_09_2131,cal_abstract,2020.2.4,60.132766896104805,
,Cond,stimuli/Wealth/37.jpg,left,,,,,,,,,,,0,66,66,66,,,,,,,,,,,,,,,,,,,,,,,,,,,,,,,,,,,1034.6020936339992,None,1034.6020936339992,None,left,1,10.861279015000036,1034.6020936339992,None,1,1045.4864423889994,None,,,,,,,,,,,,,,,,,,,,,,,,,,,,,,,,,,,,,,,,,,,,,,,,,,,,,,,,,,,,,,,,,,,11,Male,21,001,2021_Mar_09_2131,cal_abstract,2020.2.4,60.132766896104805,
,Fix1,stimuli/Healthy/11.jpg,right,,,,,,,,,,,0,67,67,67,,,,,,,,,,,,,,,,,,,,,,,,,,,,,,,,,,,1046.2532325819993,None,1046.2532325819993,None,right,1,0.7780245649992139,1046.2532325819993,None,1,1047.0532348339984,None,,,,,,,,,,,,,,,,,,,,,,,,,,,,,,,,,,,,,,,,,,,,,,,,,,,,,,,,,,,,,,,,,,,11,Male,21,001,2021_Mar_09_2131,cal_abstract,2020.2.4,60.132766896104805,
,Cond,stimuli/Wealth/50.jpg,left,,,,,,,,,,,0,68,68,68,,,,,,,,,,,,,,,,,,,,,,,,,,,,,,,,,,,1047.8201842239978,None,1047.8201842239978,None,left,1,2.242909413002053,1047.8201842239978,None,1,1050.086225687999,None,,,,,,,,,,,,,,,,,,,,,,,,,,,,,,,,,,,,,,,,,,,,,,,,,,,,,,,,,,,,,,,,,,,11,Male,21,001,2021_Mar_09_2131,cal_abstract,2020.2.4,60.132766896104805,
,Cond,stimuli/Wealth/45.jpg,right,,,,,,,,,,,0,69,69,69,,,,,,,,,,,,,,,,,,,,,,,,,,,,,,,,,,,1050.8540008439995,None,1050.8540008439995,None,right,1,2.6088860700001533,1050.8540008439995,None,1,1053.487076483998,None,,,,,,,,,,,,,,,,,,,,,,,,,,,,,,,,,,,,,,,,,,,,,,,,,,,,,,,,,,,,,,,,,,,11,Male,21,001,2021_Mar_09_2131,cal_abstract,2020.2.4,60.132766896104805,
,Cond,stimuli/Wealth/27.jpg,left,,,,,,,,,,,0,70,70,70,,,,,,,,,,,,,,,,,,,,,,,,,,,,,,,,,,,1054.2535542990008,None,1054.2535542990008,None,left,1,2.3332435749980505,1054.2535542990008,None,1,1056.6038600419997,None,,,,,,,,,,,,,,,,,,,,,,,,,,,,,,,,,,,,,,,,,,,,,,,,,,,,,,,,,,,,,,,,,,,11,Male,21,001,2021_Mar_09_2131,cal_abstract,2020.2.4,60.132766896104805,
,Fix2,stimuli/Old/7.jpg,left,,,,,,,,,,,0,71,71,71,,,,,,,,,,,,,,,,,,,,,,,,,,,,,,,,,,,1057.3707197570002,None,1057.3707197570002,None,left,1,0.7007104580006853,1057.3707197570002,None,1,1058.103917149001,None,,,,,,,,,,,,,,,,,,,,,,,,,,,,,,,,,,,,,,,,,,,,,,,,,,,,,,,,,,,,,,,,,,,11,Male,21,001,2021_Mar_09_2131,cal_abstract,2020.2.4,60.132766896104805,
,Fix1,stimuli/Healthy/24.jpg,right,,,,,,,,,,,0,72,72,72,,,,,,,,,,,,,,,,,,,,,,,,,,,,,,,,,,,1058.8876630539999,None,1058.8876630539999,None,right,1,0.4558131730009336,1058.8876630539999,None,1,1059.3705910169992,None,,,,,,,,,,,,,,,,,,,,,,,,,,,,,,,,,,,,,,,,,,,,,,,,,,,,,,,,,,,,,,,,,,,11,Male,21,001,2021_Mar_09_2131,cal_abstract,2020.2.4,60.132766896104805,
,Fix2,stimuli/Old/36.jpg,left,,,,,,,,,,,0,73,73,73,,,,,,,,,,,,,,,,,,,,,,,,,,,,,,,,,,,1060.1374685189985,None,1060.1374685189985,None,left,1,0.7759386599973368,1060.1374685189985,None,1,1060.9369770470003,None,,,,,,,,,,,,,,,,,,,,,,,,,,,,,,,,,,,,,,,,,,,,,,,,,,,,,,,,,,,,,,,,,,,11,Male,21,001,2021_Mar_09_2131,cal_abstract,2020.2.4,60.132766896104805,
,Fix1,stimuli/Healthy/69.jpg,right,,,,,,,,,,,0,74,74,74,,,,,,,,,,,,,,,,,,,,,,,,,,,,,,,,,,,1061.7044106719986,None,1061.7044106719986,None,right,1,0.9029783000005409,1061.7044106719986,None,1,1062.637436309,None,,,,,,,,,,,,,,,,,,,,,,,,,,,,,,,,,,,,,,,,,,,,,,,,,,,,,,,,,,,,,,,,,,,11,Male,21,001,2021_Mar_09_2131,cal_abstract,2020.2.4,60.132766896104805,
,Fix2,stimuli/Old/13.jpg,left,,,,,,,,,,,0,75,75,75,,,,,,,,,,,,,,,,,,,,,,,,,,,,,,,,,,,1063.404246397,None,1063.404246397,None,left,1,0.7949449949992413,1063.404246397,None,1,1064.221257713998,None,,,,,,,,,,,,,,,,,,,,,,,,,,,,,,,,,,,,,,,,,,,,,,,,,,,,,,,,,,,,,,,,,,,11,Male,21,001,2021_Mar_09_2131,cal_abstract,2020.2.4,60.132766896104805,
,Cond,stimuli/Wealth/14.jpg,right,,,,,,,,,,,0,76,76,76,,,,,,,,,,,,,,,,,,,,,,,,,,,,,,,,,,,1064.988010942001,None,1064.988010942001,None,right,1,1.3983349499976612,1064.988010942001,None,1,1066.4046233119989,None,,,,,,,,,,,,,,,,,,,,,,,,,,,,,,,,,,,,,,,,,,,,,,,,,,,,,,,,,,,,,,,,,,,11,Male,21,001,2021_Mar_09_2131,cal_abstract,2020.2.4,60.132766896104805,
,Fix2,stimuli/Old/5.jpg,left,,,,,,,,,,,0,77,77,77,,,,,,,,,,,,,,,,,,,,,,,,,,,,,,,,,,,1067.171519088999,None,1067.171519088999,None,left,1,2.352300059999834,1067.171519088999,None,1,1069.5546760840007,None,,,,,,,,,,,,,,,,,,,,,,,,,,,,,,,,,,,,,,,,,,,,,,,,,,,,,,,,,,,,,,,,,,,11,Male,21,001,2021_Mar_09_2131,cal_abstract,2020.2.4,60.132766896104805,
,Fix1,stimuli/Healthy/8.jpg,right,,,,,,,,,,,0,78,78,78,,,,,,,,,,,,,,,,,,,,,,,,,,,,,,,,,,,1070.321831041998,None,1070.321831041998,None,right,1,0.5429430549993413,1070.321831041998,None,1,1070.8882450919991,None,,,,,,,,,,,,,,,,,,,,,,,,,,,,,,,,,,,,,,,,,,,,,,,,,,,,,,,,,,,,,,,,,,,11,Male,21,001,2021_Mar_09_2131,cal_abstract,2020.2.4,60.132766896104805,
,Fix1,stimuli/Healthy/27.jpg,right,,,,,,,,,,,0,79,79,79,,,,,,,,,,,,,,,,,,,,,,,,,,,,,,,,,,,1071.6551543589994,None,1071.6551543589994,None,right,1,27.879027654998936,1071.6551543589994,None,1,1099.5568434870002,None,,,,,,,,,,,,,,,,,,,,,,,,,,,,,,,,,,,,,,,,,,,,,,,,,,,,,,,,,,,,,,,,,,,11,Male,21,001,2021_Mar_09_2131,cal_abstract,2020.2.4,60.132766896104805,
,Fix1,stimuli/Healthy/46.jpg,right,,,,,,,,,,,0,80,80,80,,,,,,,,,,,,,,,,,,,,,,,,,,,,,,,,,,,1100.3236954239983,None,1100.3236954239983,None,right,1,0.9093842820002465,1100.3236954239983,None,1,1101.2569942019982,None,,,,,,,,,,,,,,,,,,,,,,,,,,,,,,,,,,,,,,,,,,,,,,,,,,,,,,,,,,,,,,,,,,,11,Male,21,001,2021_Mar_09_2131,cal_abstract,2020.2.4,60.132766896104805,
,Cond,stimuli/Wealth/4.jpg,left,,,,,,,,,,,0,81,81,81,,,,,,,,,,,,,,,,,,,,,,,,,,,,,,,,,,,1102.0238846339998,None,1102.0238846339998,None,left,1,1.233064979998744,1102.0238846339998,None,1,1103.2737660519997,None,,,,,,,,,,,,,,,,,,,,,,,,,,,,,,,,,,,,,,,,,,,,,,,,,,,,,,,,,,,,,,,,,,,11,Male,21,001,2021_Mar_09_2131,cal_abstract,2020.2.4,60.132766896104805,
,Fix1,stimuli/Healthy/5.jpg,right,,,,,,,,,,,0,82,82,82,,,,,,,,,,,,,,,,,,,,,,,,,,,,,,,,,,,1104.040595778999,None,1104.040595778999,None,right,1,15.775897221999912,1104.040595778999,None,1,1119.8416689919977,None,,,,,,,,,,,,,,,,,,,,,,,,,,,,,,,,,,,,,,,,,,,,,,,,,,,,,,,,,,,,,,,,,,,11,Male,21,001,2021_Mar_09_2131,cal_abstract,2020.2.4,60.132766896104805,
,Fix2,stimuli/Old/31.jpg,left,,,,,,,,,,,0,83,83,83,,,,,,,,,,,,,,,,,,,,,,,,,,,,,,,,,,,1120.6092446990006,None,1120.6092446990006,None,left,1,0.618131840001297,1120.6092446990006,None,1,1121.258309752,None,,,,,,,,,,,,,,,,,,,,,,,,,,,,,,,,,,,,,,,,,,,,,,,,,,,,,,,,,,,,,,,,,,,11,Male,21,001,2021_Mar_09_2131,cal_abstract,2020.2.4,60.132766896104805,
,Fix1,stimuli/Healthy/45.jpg,right,,,,,,,,,,,0,84,84,84,,,,,,,,,,,,,,,,,,,,,,,,,,,,,,,,,,,1122.0253778039987,None,1122.0253778039987,None,right,1,34.91221133199724,1122.0253778039987,None,1,1156.9608748969986,None,,,,,,,,,,,,,,,,,,,,,,,,,,,,,,,,,,,,,,,,,,,,,,,,,,,,,,,,,,,,,,,,,,,11,Male,21,001,2021_Mar_09_2131,cal_abstract,2020.2.4,60.132766896104805,
,Fix2,stimuli/Old/34.jpg,left,,,,,,,,,,,0,85,85,85,,,,,,,,,,,,,,,,,,,,,,,,,,,,,,,,,,,1157.727581954001,None,1157.727581954001,None,left,1,0.7826869580021594,1157.727581954001,None,1,1158.527513809,None,,,,,,,,,,,,,,,,,,,,,,,,,,,,,,,,,,,,,,,,,,,,,,,,,,,,,,,,,,,,,,,,,,,11,Male,21,001,2021_Mar_09_2131,cal_abstract,2020.2.4,60.132766896104805,
,Cond,stimuli/Wealth/46.jpg,right,,,,,,,,,,,0,86,86,86,,,,,,,,,,,,,,,,,,,,,,,,,,,,,,,,,,,1159.2943461989998,None,1159.2943461989998,None,right,1,1.185606300001382,1159.2943461989998,None,1,1160.510587648998,None,,,,,,,,,,,,,,,,,,,,,,,,,,,,,,,,,,,,,,,,,,,,,,,,,,,,,,,,,,,,,,,,,,,11,Male,21,001,2021_Mar_09_2131,cal_abstract,2020.2.4,60.132766896104805,
,Fix1,stimuli/Healthy/68.jpg,right,,,,,,,,,,,0,87,87,87,,,,,,,,,,,,,,,,,,,,,,,,,,,,,,,,,,,1161.2776904040002,None,1161.2776904040002,None,right,1,1.025234939999791,1161.2776904040002,None,1,1162.3278854189994,None,,,,,,,,,,,,,,,,,,,,,,,,,,,,,,,,,,,,,,,,,,,,,,,,,,,,,,,,,,,,,,,,,,,11,Male,21,001,2021_Mar_09_2131,cal_abstract,2020.2.4,60.132766896104805,
,Fix2,stimuli/Old/37.jpg,left,,,,,,,,,,,0,88,88,88,,,,,,,,,,,,,,,,,,,,,,,,,,,,,,,,,,,1163.0944627789977,None,1163.0944627789977,None,left,1,0.5292050980024214,1163.0944627789977,None,1,1163.644580461998,None,,,,,,,,,,,,,,,,,,,,,,,,,,,,,,,,,,,,,,,,,,,,,,,,,,,,,,,,,,,,,,,,,,,11,Male,21,001,2021_Mar_09_2131,cal_abstract,2020.2.4,60.132766896104805,
,Cond,stimuli/Wealth/31.jpg,right,,,,,,,,,,,0,89,89,89,,,,,,,,,,,,,,,,,,,,,,,,,,,,,,,,,,,1164.4111215189987,None,1164.4111215189987,None,right,1,48.23755928000173,1164.4111215189987,None,1,1212.6812355139991,None,,,,,,,,,,,,,,,,,,,,,,,,,,,,,,,,,,,,,,,,,,,,,,,,,,,,,,,,,,,,,,,,,,,11,Male,21,001,2021_Mar_09_2131,cal_abstract,2020.2.4,60.132766896104805,
,Fix1,stimuli/Healthy/15.jpg,right,,,,,,,,,,,0,90,90,90,,,,,,,,,,,,,,,,,,,,,,,,,,,,,,,,,,,1213.4484216969977,None,1213.4484216969977,None,right,1,0.6878067500001634,1213.4484216969977,None,1,1214.1649336219998,None,,,,,,,,,,,,,,,,,,,,,,,,,,,,,,,,,,,,,,,,,,,,,,,,,,,,,,,,,,,,,,,,,,,11,Male,21,001,2021_Mar_09_2131,cal_abstract,2020.2.4,60.132766896104805,
,Fix2,stimuli/Old/48.jpg,left,,,,,,,,,,,0,91,91,91,,,,,,,,,,,,,,,,,,,,,,,,,,,,,,,,,,,1214.931699978999,None,1214.931699978999,None,left,1,1.6403855700009444,1214.931699978999,None,1,1216.5976323289979,None,,,,,,,,,,,,,,,,,,,,,,,,,,,,,,,,,,,,,,,,,,,,,,,,,,,,,,,,,,,,,,,,,,,11,Male,21,001,2021_Mar_09_2131,cal_abstract,2020.2.4,60.132766896104805,
,Fix1,stimuli/Healthy/26.jpg,right,,,,,,,,,,,0,92,92,92,,,,,,,,,,,,,,,,,,,,,,,,,,,,,,,,,,,1217.3652992219977,None,1217.3652992219977,None,right,1,0.7256868000004033,1217.3652992219977,None,1,1218.1149277969998,None,,,,,,,,,,,,,,,,,,,,,,,,,,,,,,,,,,,,,,,,,,,,,,,,,,,,,,,,,,,,,,,,,,,11,Male,21,001,2021_Mar_09_2131,cal_abstract,2020.2.4,60.132766896104805,
,Fix1,stimuli/Healthy/61.jpg,right,,,,,,,,,,,0,93,93,93,,,,,,,,,,,,,,,,,,,,,,,,,,,,,,,,,,,1218.8819947439988,None,1218.8819947439988,None,right,1,0.5449283899979491,1218.8819947439988,None,1,1219.4484851689995,None,,,,,,,,,,,,,,,,,,,,,,,,,,,,,,,,,,,,,,,,,,,,,,,,,,,,,,,,,,,,,,,,,,,11,Male,21,001,2021_Mar_09_2131,cal_abstract,2020.2.4,60.132766896104805,
,Cond,stimuli/Wealth/11.jpg,left,,,,,,,,,,,0,94,94,94,,,,,,,,,,,,,,,,,,,,,,,,,,,,,,,,,,,1220.2150253719992,None,1220.2150253719992,None,left,1,0.9329174199992849,1220.2150253719992,None,1,1221.1652866490003,None,,,,,,,,,,,,,,,,,,,,,,,,,,,,,,,,,,,,,,,,,,,,,,,,,,,,,,,,,,,,,,,,,,,11,Male,21,001,2021_Mar_09_2131,cal_abstract,2020.2.4,60.132766896104805,
,Cond,stimuli/Wealth/2.jpg,right,,,,,,,,,,,0,95,95,95,,,,,,,,,,,,,,,,,,,,,,,,,,,,,,,,,,,1221.9321095019986,None,1221.9321095019986,None,right,1,1.724521675001597,1221.9321095019986,None,1,1223.6819407170005,None,,,,,,,,,,,,,,,,,,,,,,,,,,,,,,,,,,,,,,,,,,,,,,,,,,,,,,,,,,,,,,,,,,,11,Male,21,001,2021_Mar_09_2131,cal_abstract,2020.2.4,60.132766896104805,
,Cond,stimuli/Wealth/25.jpg,left,,,,,,,,,,,0,96,96,96,,,,,,,,,,,,,,,,,,,,,,,,,,,,,,,,,,,1224.4490096519985,None,1224.4490096519985,None,right,0,0.500396797000576,1224.4490096519985,None,0,1224.9822000989989,None,,,,,,,,,,,,,,,,,,,,,,,,,,,,,,,,,,,,,,,,,,,,,,,,,,,,,,,,,,,,,,,,,,,11,Male,21,001,2021_Mar_09_2131,cal_abstract,2020.2.4,60.132766896104805,
,Cond,stimuli/Wealth/5.jpg,right,,,,,,,,,,,0,97,97,97,,,,,,,,,,,,,,,,,,,,,,,,,,,,,,,,,,,1225.7653974189998,None,1225.7653974189998,None,left,0,2.80790312499812,1225.7653974189998,None,0,1228.5991114719982,None,,,,,,,,,,,,,,,,,,,,,,,,,,,,,,,,,,,,,,,,,,,,,,,,,,,,,,,,,,,,,,,,,,,11,Male,21,001,2021_Mar_09_2131,cal_abstract,2020.2.4,60.132766896104805,
,Cond,stimuli/Wealth/59.jpg,left,,,,,,,,,,,0,98,98,98,,,,,,,,,,,,,,,,,,,,,,,,,,,,,,,,,,,1229.365436906999,None,1229.365436906999,None,left,1,0.6448018029986997,1229.365436906999,None,1,1230.0327413689993,None,,,,,,,,,,,,,,,,,,,,,,,,,,,,,,,,,,,,,,,,,,,,,,,,,,,,,,,,,,,,,,,,,,,11,Male,21,001,2021_Mar_09_2131,cal_abstract,2020.2.4,60.132766896104805,
,Fix1,stimuli/Healthy/30.jpg,right,,,,,,,,,,,0,99,99,99,,,,,,,,,,,,,,,,,,,,,,,,,,,,,,,,,,,1230.7990758640008,None,1230.7990758640008,None,right,1,0.5430632600000536,1230.7990758640008,None,1,1231.3659870939991,None,,,,,,,,,,,,,,,,,,,,,,,,,,,,,,,,,,,,,,,,,,,,,,,,,,,,,,,,,,,,,,,,,,,11,Male,21,001,2021_Mar_09_2131,cal_abstract,2020.2.4,60.132766896104805,
,Fix2,stimuli/Old/12.jpg,left,,,,,,,,,,,0,100,100,100,,,,,,,,,,,,,,,,,,,,,,,,,,,,,,,,,,,1232.132879648998,None,1232.132879648998,None,left,1,0.5901502720007556,1232.132879648998,None,1,1232.7494560619998,None,,,,,,,,,,,,,,,,,,,,,,,,,,,,,,,,,,,,,,,,,,,,,,,,,,,,,,,,,,,,,,,,,,,11,Male,21,001,2021_Mar_09_2131,cal_abstract,2020.2.4,60.132766896104805,
,Cond,stimuli/Wealth/55.jpg,right,,,,,,,,,,,0,101,101,101,,,,,,,,,,,,,,,,,,,,,,,,,,,,,,,,,,,1233.5162989889977,None,1233.5162989889977,None,right,1,1.1576173220018973,1233.5162989889977,None,1,1234.6996325519976,None,,,,,,,,,,,,,,,,,,,,,,,,,,,,,,,,,,,,,,,,,,,,,,,,,,,,,,,,,,,,,,,,,,,11,Male,21,001,2021_Mar_09_2131,cal_abstract,2020.2.4,60.132766896104805,
,Fix1,stimuli/Healthy/1.jpg,right,,,,,,,,,,,0,102,102,102,,,,,,,,,,,,,,,,,,,,,,,,,,,,,,,,,,,1235.4663687190005,None,1235.4663687190005,None,right,1,0.7013157530018361,1235.4663687190005,None,1,1236.1996179519992,None,,,,,,,,,,,,,,,,,,,,,,,,,,,,,,,,,,,,,,,,,,,,,,,,,,,,,,,,,,,,,,,,,,,11,Male,21,001,2021_Mar_09_2131,cal_abstract,2020.2.4,60.132766896104805,
,Cond,stimuli/Wealth/53.jpg,left,,,,,,,,,,,0,103,103,103,,,,,,,,,,,,,,,,,,,,,,,,,,,,,,,,,,,1236.9663941670005,None,1236.9663941670005,None,left,1,0.9543873780021386,1236.9663941670005,None,1,1237.949533818999,None,,,,,,,,,,,,,,,,,,,,,,,,,,,,,,,,,,,,,,,,,,,,,,,,,,,,,,,,,,,,,,,,,,,11,Male,21,001,2021_Mar_09_2131,cal_abstract,2020.2.4,60.132766896104805,
,Fix1,stimuli/Healthy/19.jpg,right,,,,,,,,,,,0,104,104,104,,,,,,,,,,,,,,,,,,,,,,,,,,,,,,,,,,,1238.7163361040002,None,1238.7163361040002,None,right,1,0.5593044999986887,1238.7163361040002,None,1,1239.2998917490004,None,,,,,,,,,,,,,,,,,,,,,,,,,,,,,,,,,,,,,,,,,,,,,,,,,,,,,,,,,,,,,,,,,,,11,Male,21,001,2021_Mar_09_2131,cal_abstract,2020.2.4,60.132766896104805,
,Cond,stimuli/Wealth/20.jpg,left,,,,,,,,,,,0,105,105,105,,,,,,,,,,,,,,,,,,,,,,,,,,,,,,,,,,,1240.066685537,None,1240.066685537,None,left,1,1.7558447270021134,1240.066685537,None,1,1241.850018748999,None,,,,,,,,,,,,,,,,,,,,,,,,,,,,,,,,,,,,,,,,,,,,,,,,,,,,,,,,,,,,,,,,,,,11,Male,21,001,2021_Mar_09_2131,cal_abstract,2020.2.4,60.132766896104805,
,Fix1,stimuli/Healthy/48.jpg,right,,,,,,,,,,,0,106,106,106,,,,,,,,,,,,,,,,,,,,,,,,,,,,,,,,,,,1242.6167839769987,None,1242.6167839769987,None,right,1,0.6206795100006275,1242.6167839769987,None,1,1243.2668745320007,None,,,,,,,,,,,,,,,,,,,,,,,,,,,,,,,,,,,,,,,,,,,,,,,,,,,,,,,,,,,,,,,,,,,11,Male,21,001,2021_Mar_09_2131,cal_abstract,2020.2.4,60.132766896104805,
,Fix2,stimuli/Old/44.jpg,left,,,,,,,,,,,0,107,107,107,,,,,,,,,,,,,,,,,,,,,,,,,,,,,,,,,,,1244.0336727169997,None,1244.0336727169997,None,left,1,0.845463159999781,1244.0336727169997,None,1,1244.9000938969984,None,,,,,,,,,,,,,,,,,,,,,,,,,,,,,,,,,,,,,,,,,,,,,,,,,,,,,,,,,,,,,,,,,,,11,Male,21,001,2021_Mar_09_2131,cal_abstract,2020.2.4,60.132766896104805,
,Cond,stimuli/Wealth/16.jpg,right,,,,,,,,,,,0,108,108,108,,,,,,,,,,,,,,,,,,,,,,,,,,,,,,,,,,,1245.666862138998,None,1245.666862138998,None,right,1,1.0658539249998285,1245.666862138998,None,1,1246.750519191999,None,,,,,,,,,,,,,,,,,,,,,,,,,,,,,,,,,,,,,,,,,,,,,,,,,,,,,,,,,,,,,,,,,,,11,Male,21,001,2021_Mar_09_2131,cal_abstract,2020.2.4,60.132766896104805,
,Fix2,stimuli/Old/46.jpg,left,,,,,,,,,,,0,109,109,109,,,,,,,,,,,,,,,,,,,,,,,,,,,,,,,,,,,1247.5169074990008,None,1247.5169074990008,None,left,1,2.177074844999879,1247.5169074990008,None,1,1249.7168989519996,None,,,,,,,,,,,,,,,,,,,,,,,,,,,,,,,,,,,,,,,,,,,,,,,,,,,,,,,,,,,,,,,,,,,11,Male,21,001,2021_Mar_09_2131,cal_abstract,2020.2.4,60.132766896104805,
,Fix1,stimuli/Healthy/65.jpg,right,,,,,,,,,,,0,110,110,110,,,,,,,,,,,,,,,,,,,,,,,,,,,,,,,,,,,1250.4843060439998,None,1250.4843060439998,None,right,1,0.7014291449995653,1250.4843060439998,None,1,1251.2173120070001,None,,,,,,,,,,,,,,,,,,,,,,,,,,,,,,,,,,,,,,,,,,,,,,,,,,,,,,,,,,,,,,,,,,,11,Male,21,001,2021_Mar_09_2131,cal_abstract,2020.2.4,60.132766896104805,
,Cond,stimuli/Wealth/48.jpg,left,,,,,,,,,,,0,111,111,111,,,,,,,,,,,,,,,,,,,,,,,,,,,,,,,,,,,1251.9842593020003,None,1251.9842593020003,None,left,1,1.3975515849997464,1251.9842593020003,None,1,1253.4008888639983,None,,,,,,,,,,,,,,,,,,,,,,,,,,,,,,,,,,,,,,,,,,,,,,,,,,,,,,,,,,,,,,,,,,,11,Male,21,001,2021_Mar_09_2131,cal_abstract,2020.2.4,60.132766896104805,
,Fix1,stimuli/Healthy/67.jpg,right,,,,,,,,,,,0,112,112,112,,,,,,,,,,,,,,,,,,,,,,,,,,,,,,,,,,,1254.1672728019985,None,1254.1672728019985,None,right,1,0.5743842230003793,1254.1672728019985,None,1,1254.767509972,None,,,,,,,,,,,,,,,,,,,,,,,,,,,,,,,,,,,,,,,,,,,,,,,,,,,,,,,,,,,,,,,,,,,11,Male,21,001,2021_Mar_09_2131,cal_abstract,2020.2.4,60.132766896104805,
,Cond,stimuli/Wealth/51.jpg,left,,,,,,,,,,,0,113,113,113,,,,,,,,,,,,,,,,,,,,,,,,,,,,,,,,,,,1255.5344763190005,None,1255.5344763190005,None,left,1,0.8052026570003363,1255.5344763190005,None,1,1256.3677122990011,None,,,,,,,,,,,,,,,,,,,,,,,,,,,,,,,,,,,,,,,,,,,,,,,,,,,,,,,,,,,,,,,,,,,11,Male,21,001,2021_Mar_09_2131,cal_abstract,2020.2.4,60.132766896104805,
,Cond,stimuli/Wealth/42.jpg,right,,,,,,,,,,,0,114,114,114,,,,,,,,,,,,,,,,,,,,,,,,,,,,,,,,,,,1257.1376146369985,None,1257.1376146369985,None,right,1,1.2986613450011646,1257.1376146369985,None,1,1258.4678638919977,None,,,,,,,,,,,,,,,,,,,,,,,,,,,,,,,,,,,,,,,,,,,,,,,,,,,,,,,,,,,,,,,,,,,11,Male,21,001,2021_Mar_09_2131,cal_abstract,2020.2.4,60.132766896104805,
,Cond,stimuli/Wealth/22.jpg,left,,,,,,,,,,,0,115,115,115,,,,,,,,,,,,,,,,,,,,,,,,,,,,,,,,,,,1259.2514971519995,None,1259.2514971519995,None,left,1,0.705843179999647,1259.2514971519995,None,1,1259.984821386999,None,,,,,,,,,,,,,,,,,,,,,,,,,,,,,,,,,,,,,,,,,,,,,,,,,,,,,,,,,,,,,,,,,,,11,Male,21,001,2021_Mar_09_2131,cal_abstract,2020.2.4,60.132766896104805,
,Fix2,stimuli/Old/43.jpg,left,,,,,,,,,,,0,116,116,116,,,,,,,,,,,,,,,,,,,,,,,,,,,,,,,,,,,1260.7515796219996,None,1260.7515796219996,None,left,1,27.785906993001845,1260.7515796219996,None,1,1288.5699504469994,None,,,,,,,,,,,,,,,,,,,,,,,,,,,,,,,,,,,,,,,,,,,,,,,,,,,,,,,,,,,,,,,,,,,11,Male,21,001,2021_Mar_09_2131,cal_abstract,2020.2.4,60.132766896104805,
,Fix2,stimuli/Old/49.jpg,left,,,,,,,,,,,0,117,117,117,,,,,,,,,,,,,,,,,,,,,,,,,,,,,,,,,,,1289.3368372570003,None,1289.3368372570003,None,left,1,0.7241893620011979,1289.3368372570003,None,1,1290.0867103290002,None,,,,,,,,,,,,,,,,,,,,,,,,,,,,,,,,,,,,,,,,,,,,,,,,,,,,,,,,,,,,,,,,,,,11,Male,21,001,2021_Mar_09_2131,cal_abstract,2020.2.4,60.132766896104805,
,Fix1,stimuli/Healthy/20.jpg,right,,,,,,,,,,,0,118,118,118,,,,,,,,,,,,,,,,,,,,,,,,,,,,,,,,,,,1290.8537156870007,None,1290.8537156870007,None,right,1,7.3437976029999845,1290.8537156870007,None,1,1298.2205277639987,None,,,,,,,,,,,,,,,,,,,,,,,,,,,,,,,,,,,,,,,,,,,,,,,,,,,,,,,,,,,,,,,,,,,11,Male,21,001,2021_Mar_09_2131,cal_abstract,2020.2.4,60.132766896104805,
,Fix2,stimuli/Old/53.jpg,left,,,,,,,,,,,0,119,119,119,,,,,,,,,,,,,,,,,,,,,,,,,,,,,,,,,,,1298.9874525419982,None,1298.9874525419982,None,left,1,0.5769710299973667,1298.9874525419982,None,1,1299.586733281998,None,,,,,,,,,,,,,,,,,,,,,,,,,,,,,,,,,,,,,,,,,,,,,,,,,,,,,,,,,,,,,,,,,,,11,Male,21,001,2021_Mar_09_2131,cal_abstract,2020.2.4,60.132766896104805,
,Fix1,stimuli/Healthy/10.jpg,right,,,,,,,,,,,0,120,120,120,,,,,,,,,,,,,,,,,,,,,,,,,,,,,,,,,,,1300.3544284470008,None,1300.3544284470008,None,right,1,0.49682992000089143,1300.3544284470008,None,1,1300.8707076639985,None,,,,,,,,,,,,,,,,,,,,,,,,,,,,,,,,,,,,,,,,,,,,,,,,,,,,,,,,,,,,,,,,,,,11,Male,21,001,2021_Mar_09_2131,cal_abstract,2020.2.4,60.132766896104805,
,Cond,stimuli/Wealth/13.jpg,left,,,,,,,,,,,0,121,121,121,,,,,,,,,,,,,,,,,,,,,,,,,,,,,,,,,,,1301.654080193999,None,1301.654080193999,None,left,1,0.6111621400013973,1301.654080193999,None,1,1302.287058916998,None,,,,,,,,,,,,,,,,,,,,,,,,,,,,,,,,,,,,,,,,,,,,,,,,,,,,,,,,,,,,,,,,,,,11,Male,21,001,2021_Mar_09_2131,cal_abstract,2020.2.4,60.132766896104805,
,Cond,stimuli/Wealth/10.jpg,right,,,,,,,,,,,0,122,122,122,,,,,,,,,,,,,,,,,,,,,,,,,,,,,,,,,,,1303.054299858999,None,1303.054299858999,None,left,0,0.9908392249999451,1303.054299858999,None,0,1304.0707460970007,None,,,,,,,,,,,,,,,,,,,,,,,,,,,,,,,,,,,,,,,,,,,,,,,,,,,,,,,,,,,,,,,,,,,11,Male,21,001,2021_Mar_09_2131,cal_abstract,2020.2.4,60.132766896104805,
,Fix1,stimuli/Healthy/64.jpg,right,,,,,,,,,,,0,123,123,123,,,,,,,,,,,,,,,,,,,,,,,,,,,,,,,,,,,1304.837823037,None,1304.837823037,None,right,1,0.7413435929993284,1304.837823037,None,1,1305.6041585739986,None,,,,,,,,,,,,,,,,,,,,,,,,,,,,,,,,,,,,,,,,,,,,,,,,,,,,,,,,,,,,,,,,,,,11,Male,21,001,2021_Mar_09_2131,cal_abstract,2020.2.4,60.132766896104805,
,Cond,stimuli/Wealth/35.jpg,left,,,,,,,,,,,0,124,124,124,,,,,,,,,,,,,,,,,,,,,,,,,,,,,,,,,,,1306.3712384739993,None,1306.3712384739993,None,left,1,1.2758094220007479,1306.3712384739993,None,1,1307.6708930019995,None,,,,,,,,,,,,,,,,,,,,,,,,,,,,,,,,,,,,,,,,,,,,,,,,,,,,,,,,,,,,,,,,,,,11,Male,21,001,2021_Mar_09_2131,cal_abstract,2020.2.4,60.132766896104805,
,Cond,stimuli/Wealth/8.jpg,right,,,,,,,,,,,0,125,125,125,,,,,,,,,,,,,,,,,,,,,,,,,,,,,,,,,,,1308.4377964970008,None,1308.4377964970008,None,right,1,0.8651377579990367,1308.4377964970008,None,1,1309.3212830289995,None,,,,,,,,,,,,,,,,,,,,,,,,,,,,,,,,,,,,,,,,,,,,,,,,,,,,,,,,,,,,,,,,,,,11,Male,21,001,2021_Mar_09_2131,cal_abstract,2020.2.4,60.132766896104805,
,Fix2,stimuli/Old/18.jpg,left,,,,,,,,,,,0,126,126,126,,,,,,,,,,,,,,,,,,,,,,,,,,,,,,,,,,,1310.0877942469997,None,1310.0877942469997,None,left,1,0.6458671930013224,1310.0877942469997,None,1,1310.7548489639994,None,,,,,,,,,,,,,,,,,,,,,,,,,,,,,,,,,,,,,,,,,,,,,,,,,,,,,,,,,,,,,,,,,,,11,Male,21,001,2021_Mar_09_2131,cal_abstract,2020.2.4,60.132766896104805,
,Fix1,stimuli/Healthy/34.jpg,right,,,,,,,,,,,0,127,127,127,,,,,,,,,,,,,,,,,,,,,,,,,,,,,,,,,,,1311.521624273999,None,1311.521624273999,None,right,1,0.583840618000977,1311.521624273999,None,1,1312.1379872420002,None,,,,,,,,,,,,,,,,,,,,,,,,,,,,,,,,,,,,,,,,,,,,,,,,,,,,,,,,,,,,,,,,,,,11,Male,21,001,2021_Mar_09_2131,cal_abstract,2020.2.4,60.132766896104805,
,Fix2,stimuli/Old/42.jpg,left,,,,,,,,,,,0,128,128,128,,,,,,,,,,,,,,,,,,,,,,,,,,,,,,,,,,,1312.907369212,None,1312.907369212,None,left,1,0.7221559219979099,1312.907369212,None,1,1313.654749712001,None,,,,,,,,,,,,,,,,,,,,,,,,,,,,,,,,,,,,,,,,,,,,,,,,,,,,,,,,,,,,,,,,,,,11,Male,21,001,2021_Mar_09_2131,cal_abstract,2020.2.4,60.132766896104805,
,Fix1,stimuli/Healthy/36.jpg,right,,,,,,,,,,,0,129,129,129,,,,,,,,,,,,,,,,,,,,,,,,,,,,,,,,,,,1314.421687531998,None,1314.421687531998,None,right,1,0.6437298849996296,1314.421687531998,None,1,1315.0871997079994,None,,,,,,,,,,,,,,,,,,,,,,,,,,,,,,,,,,,,,,,,,,,,,,,,,,,,,,,,,,,,,,,,,,,11,Male,21,001,2021_Mar_09_2131,cal_abstract,2020.2.4,60.132766896104805,
,Fix2,stimuli/Old/1.jpg,left,,,,,,,,,,,0,130,130,130,,,,,,,,,,,,,,,,,,,,,,,,,,,,,,,,,,,1315.8551241589994,None,1315.8551241589994,None,left,1,0.6790503550000722,1315.8551241589994,None,1,1316.5543112419982,None,,,,,,,,,,,,,,,,,,,,,,,,,,,,,,,,,,,,,,,,,,,,,,,,,,,,,,,,,,,,,,,,,,,11,Male,21,001,2021_Mar_09_2131,cal_abstract,2020.2.4,60.132766896104805,
,Cond,stimuli/Wealth/38.jpg,right,,,,,,,,,,,0,131,131,131,,,,,,,,,,,,,,,,,,,,,,,,,,,,,,,,,,,1317.3218118919976,None,1317.3218118919976,None,right,1,8.80998612500116,1317.3218118919976,None,1,1326.1555342389984,None,,,,,,,,,,,,,,,,,,,,,,,,,,,,,,,,,,,,,,,,,,,,,,,,,,,,,,,,,,,,,,,,,,,11,Male,21,001,2021_Mar_09_2131,cal_abstract,2020.2.4,60.132766896104805,
,Fix2,stimuli/Old/47.jpg,left,,,,,,,,,,,0,132,132,132,,,,,,,,,,,,,,,,,,,,,,,,,,,,,,,,,,,1326.9227207820004,None,1326.9227207820004,None,left,1,2.703882980000344,1326.9227207820004,None,1,1329.6559284319992,None,,,,,,,,,,,,,,,,,,,,,,,,,,,,,,,,,,,,,,,,,,,,,,,,,,,,,,,,,,,,,,,,,,,11,Male,21,001,2021_Mar_09_2131,cal_abstract,2020.2.4,60.132766896104805,
,Cond,stimuli/Wealth/33.jpg,right,,,,,,,,,,,0,133,133,133,,,,,,,,,,,,,,,,,,,,,,,,,,,,,,,,,,,1330.422862506999,None,1330.422862506999,None,right,1,4.9882661669980735,1330.422862506999,None,1,1335.4398600040004,None,,,,,,,,,,,,,,,,,,,,,,,,,,,,,,,,,,,,,,,,,,,,,,,,,,,,,,,,,,,,,,,,,,,11,Male,21,001,2021_Mar_09_2131,cal_abstract,2020.2.4,60.132766896104805,
,Fix2,stimuli/Old/15.jpg,left,,,,,,,,,,,0,134,134,134,,,,,,,,,,,,,,,,,,,,,,,,,,,,,,,,,,,1336.2067926290001,None,1336.2067926290001,None,left,1,9.680612724998355,1336.2067926290001,None,1,1345.9072182140007,None,,,,,,,,,,,,,,,,,,,,,,,,,,,,,,,,,,,,,,,,,,,,,,,,,,,,,,,,,,,,,,,,,,,11,Male,21,001,2021_Mar_09_2131,cal_abstract,2020.2.4,60.132766896104805,
,Fix2,stimuli/Old/33.jpg,left,,,,,,,,,,,0,135,135,135,,,,,,,,,,,,,,,,,,,,,,,,,,,,,,,,,,,1346.6740586339984,None,1346.6740586339984,None,left,1,2.896140384997125,1346.6740586339984,None,1,1349.5905648589978,None,,,,,,,,,,,,,,,,,,,,,,,,,,,,,,,,,,,,,,,,,,,,,,,,,,,,,,,,,,,,,,,,,,,11,Male,21,001,2021_Mar_09_2131,cal_abstract,2020.2.4,60.132766896104805,
,Fix1,stimuli/Healthy/29.jpg,right,,,,,,,,,,,0,136,136,136,,,,,,,,,,,,,,,,,,,,,,,,,,,,,,,,,,,1350.3576479639996,None,1350.3576479639996,None,right,1,0.5513566279987572,1350.3576479639996,None,1,1350.9408886639976,None,,,,,,,,,,,,,,,,,,,,,,,,,,,,,,,,,,,,,,,,,,,,,,,,,,,,,,,,,,,,,,,,,,,11,Male,21,001,2021_Mar_09_2131,cal_abstract,2020.2.4,60.132766896104805,
,Fix2,stimuli/Old/20.jpg,left,,,,,,,,,,,0,137,137,137,,,,,,,,,,,,,,,,,,,,,,,,,,,,,,,,,,,1351.709481288999,None,1351.709481288999,None,left,1,1.0377566369970737,1351.709481288999,None,1,1352.7745375220002,None,,,,,,,,,,,,,,,,,,,,,,,,,,,,,,,,,,,,,,,,,,,,,,,,,,,,,,,,,,,,,,,,,,,11,Male,21,001,2021_Mar_09_2131,cal_abstract,2020.2.4,60.132766896104805,
,Cond,stimuli/Wealth/3.jpg,right,,,,,,,,,,,0,138,138,138,,,,,,,,,,,,,,,,,,,,,,,,,,,,,,,,,,,1353.5410817089978,None,1353.5410817089978,None,left,0,1.2808601849974366,1353.5410817089978,None,0,1354.8412693739992,None,,,,,,,,,,,,,,,,,,,,,,,,,,,,,,,,,,,,,,,,,,,,,,,,,,,,,,,,,,,,,,,,,,,11,Male,21,001,2021_Mar_09_2131,cal_abstract,2020.2.4,60.132766896104805,
,Fix1,stimuli/Healthy/60.jpg,right,,,,,,,,,,,0,139,139,139,,,,,,,,,,,,,,,,,,,,,,,,,,,,,,,,,,,1355.608037809001,None,1355.608037809001,None,right,1,3.2964762970004813,1355.608037809001,None,1,1358.924558456998,None,,,,,,,,,,,,,,,,,,,,,,,,,,,,,,,,,,,,,,,,,,,,,,,,,,,,,,,,,,,,,,,,,,,11,Male,21,001,2021_Mar_09_2131,cal_abstract,2020.2.4,60.132766896104805,
,Cond,stimuli/Wealth/0.jpg,left,,,,,,,,,,,0,140,140,140,,,,,,,,,,,,,,,,,,,,,,,,,,,,,,,,,,,1359.691843706998,None,1359.691843706998,None,left,1,1.615749076998327,1359.691843706998,None,1,1361.3248810389996,None,,,,,,,,,,,,,,,,,,,,,,,,,,,,,,,,,,,,,,,,,,,,,,,,,,,,,,,,,,,,,,,,,,,11,Male,21,001,2021_Mar_09_2131,cal_abstract,2020.2.4,60.132766896104805,
,Fix2,stimuli/Old/17.jpg,left,,,,,,,,,,,0,141,141,141,,,,,,,,,,,,,,,,,,,,,,,,,,,,,,,,,,,1362.091753411998,None,1362.091753411998,None,left,1,1.0037411720004457,1362.091753411998,None,1,1363.1249251970003,None,,,,,,,,,,,,,,,,,,,,,,,,,,,,,,,,,,,,,,,,,,,,,,,,,,,,,,,,,,,,,,,,,,,11,Male,21,001,2021_Mar_09_2131,cal_abstract,2020.2.4,60.132766896104805,
,Fix2,stimuli/Old/51.jpg,left,,,,,,,,,,,0,142,142,142,,,,,,,,,,,,,,,,,,,,,,,,,,,,,,,,,,,1363.8918936269984,None,1363.8918936269984,None,left,1,1.0073751550007728,1363.8918936269984,None,1,1364.9251735139987,None,,,,,,,,,,,,,,,,,,,,,,,,,,,,,,,,,,,,,,,,,,,,,,,,,,,,,,,,,,,,,,,,,,,11,Male,21,001,2021_Mar_09_2131,cal_abstract,2020.2.4,60.132766896104805,
,Fix2,stimuli/Old/38.jpg,left,,,,,,,,,,,0,143,143,143,,,,,,,,,,,,,,,,,,,,,,,,,,,,,,,,,,,1365.6915784970006,None,1365.6915784970006,None,left,1,1.77063666200047,1365.6915784970006,None,1,1367.4917707469976,None,,,,,,,,,,,,,,,,,,,,,,,,,,,,,,,,,,,,,,,,,,,,,,,,,,,,,,,,,,,,,,,,,,,11,Male,21,001,2021_Mar_09_2131,cal_abstract,2020.2.4,60.132766896104805,
,Cond,stimuli/Wealth/19.jpg,right,,,,,,,,,,,0,144,144,144,,,,,,,,,,,,,,,,,,,,,,,,,,,,,,,,,,,1368.2589167939987,None,1368.2589167939987,None,right,1,0.8321466169982159,1368.2589167939987,None,1,1369.1088719289983,None,,,,,,,,,,,,,,,,,,,,,,,,,,,,,,,,,,,,,,,,,,,,,,,,,,,,,,,,,,,,,,,,,,,11,Male,21,001,2021_Mar_09_2131,cal_abstract,2020.2.4,60.132766896104805,
,Fix2,stimuli/Old/32.jpg,left,,,,,,,,,,,0,145,145,145,,,,,,,,,,,,,,,,,,,,,,,,,,,,,,,,,,,1369.875531761998,None,1369.875531761998,None,left,1,0.6034389500018733,1369.875531761998,None,1,1370.5088831969988,None,,,,,,,,,,,,,,,,,,,,,,,,,,,,,,,,,,,,,,,,,,,,,,,,,,,,,,,,,,,,,,,,,,,11,Male,21,001,2021_Mar_09_2131,cal_abstract,2020.2.4,60.132766896104805,
,Fix1,stimuli/Healthy/7.jpg,right,,,,,,,,,,,0,146,146,146,,,,,,,,,,,,,,,,,,,,,,,,,,,,,,,,,,,1371.2757618670003,None,1371.2757618670003,None,right,1,0.5628985199982708,1371.2757618670003,None,1,1371.858892802,None,,,,,,,,,,,,,,,,,,,,,,,,,,,,,,,,,,,,,,,,,,,,,,,,,,,,,,,,,,,,,,,,,,,11,Male,21,001,2021_Mar_09_2131,cal_abstract,2020.2.4,60.132766896104805,
,Cond,stimuli/Wealth/7.jpg,left,,,,,,,,,,,0,147,147,147,,,,,,,,,,,,,,,,,,,,,,,,,,,,,,,,,,,1372.6260737289995,None,1372.6260737289995,None,left,1,1.4036386600018886,1372.6260737289995,None,1,1374.0591737520008,None,,,,,,,,,,,,,,,,,,,,,,,,,,,,,,,,,,,,,,,,,,,,,,,,,,,,,,,,,,,,,,,,,,,11,Male,21,001,2021_Mar_09_2131,cal_abstract,2020.2.4,60.132766896104805,
,Fix1,stimuli/Healthy/31.jpg,right,,,,,,,,,,,0,148,148,148,,,,,,,,,,,,,,,,,,,,,,,,,,,,,,,,,,,1374.826241947001,None,1374.826241947001,None,right,1,0.7561809950020688,1374.826241947001,None,1,1375.609326662001,None,,,,,,,,,,,,,,,,,,,,,,,,,,,,,,,,,,,,,,,,,,,,,,,,,,,,,,,,,,,,,,,,,,,11,Male,21,001,2021_Mar_09_2131,cal_abstract,2020.2.4,60.132766896104805,
,Cond,stimuli/Wealth/21.jpg,left,,,,,,,,,,,0,149,149,149,,,,,,,,,,,,,,,,,,,,,,,,,,,,,,,,,,,1376.3761012920004,None,1376.3761012920004,None,left,1,1.5681899379997049,1376.3761012920004,None,1,1377.9756198219984,None,,,,,,,,,,,,,,,,,,,,,,,,,,,,,,,,,,,,,,,,,,,,,,,,,,,,,,,,,,,,,,,,,,,11,Male,21,001,2021_Mar_09_2131,cal_abstract,2020.2.4,60.132766896104805,
,Cond,stimuli/Wealth/40.jpg,right,,,,,,,,,,,0,150,150,150,,,,,,,,,,,,,,,,,,,,,,,,,,,,,,,,,,,1378.7426488370002,None,1378.7426488370002,None,left,0,13.238958149999235,1378.7426488370002,None,0,1392.010469402001,None,,,,,,,,,,,,,,,,,,,,,,,,,,,,,,,,,,,,,,,,,,,,,,,,,,,,,,,,,,,,,,,,,,,11,Male,21,001,2021_Mar_09_2131,cal_abstract,2020.2.4,60.132766896104805,
,Cond,stimuli/Wealth/54.jpg,left,,,,,,,,,,,0,151,151,151,,,,,,,,,,,,,,,,,,,,,,,,,,,,,,,,,,,1392.7771576419982,None,1392.7771576419982,None,right,0,0.8052856850008538,1392.7771576419982,None,0,1393.6105771519979,None,,,,,,,,,,,,,,,,,,,,,,,,,,,,,,,,,,,,,,,,,,,,,,,,,,,,,,,,,,,,,,,,,,,11,Male,21,001,2021_Mar_09_2131,cal_abstract,2020.2.4,60.132766896104805,
,Cond,stimuli/Wealth/23.jpg,right,,,,,,,,,,,0,152,152,152,,,,,,,,,,,,,,,,,,,,,,,,,,,,,,,,,,,1394.377413801998,None,1394.377413801998,None,right,1,0.7379442650017154,1394.377413801998,None,1,1395.1435010919995,None,,,,,,,,,,,,,,,,,,,,,,,,,,,,,,,,,,,,,,,,,,,,,,,,,,,,,,,,,,,,,,,,,,,11,Male,21,001,2021_Mar_09_2131,cal_abstract,2020.2.4,60.132766896104805,
,Cond,stimuli/Wealth/26.jpg,left,,,,,,,,,,,0,153,153,153,,,,,,,,,,,,,,,,,,,,,,,,,,,,,,,,,,,1395.9108097719982,None,1395.9108097719982,None,right,0,0.6774378310001339,1395.9108097719982,None,0,1396.6107201039995,None,,,,,,,,,,,,,,,,,,,,,,,,,,,,,,,,,,,,,,,,,,,,,,,,,,,,,,,,,,,,,,,,,,,11,Male,21,001,2021_Mar_09_2131,cal_abstract,2020.2.4,60.132766896104805,
,Cond,stimuli/Wealth/30.jpg,right,,,,,,,,,,,0,154,154,154,,,,,,,,,,,,,,,,,,,,,,,,,,,,,,,,,,,1397.3775489420004,None,1397.3775489420004,None,left,0,6.1011137919995235,1397.3775489420004,None,0,1403.5111389019985,None,,,,,,,,,,,,,,,,,,,,,,,,,,,,,,,,,,,,,,,,,,,,,,,,,,,,,,,,,,,,,,,,,,,11,Male,21,001,2021_Mar_09_2131,cal_abstract,2020.2.4,60.132766896104805,
,Fix1,stimuli/Healthy/59.jpg,right,,,,,,,,,,,0,155,155,155,,,,,,,,,,,,,,,,,,,,,,,,,,,,,,,,,,,1404.2780392519999,None,1404.2780392519999,None,right,1,0.7586924429997453,1404.2780392519999,None,1,1405.0612368170005,None,,,,,,,,,,,,,,,,,,,,,,,,,,,,,,,,,,,,,,,,,,,,,,,,,,,,,,,,,,,,,,,,,,,11,Male,21,001,2021_Mar_09_2131,cal_abstract,2020.2.4,60.132766896104805,
,Fix2,stimuli/Old/28.jpg,left,,,,,,,,,,,0,156,156,156,,,,,,,,,,,,,,,,,,,,,,,,,,,,,,,,,,,1405.8279903020011,None,1405.8279903020011,None,left,1,0.6625103820006188,1405.8279903020011,None,1,1406.5115606289983,None,,,,,,,,,,,,,,,,,,,,,,,,,,,,,,,,,,,,,,,,,,,,,,,,,,,,,,,,,,,,,,,,,,,11,Male,21,001,2021_Mar_09_2131,cal_abstract,2020.2.4,60.132766896104805,
,Fix1,stimuli/Healthy/41.jpg,right,,,,,,,,,,,0,157,157,157,,,,,,,,,,,,,,,,,,,,,,,,,,,,,,,,,,,1407.2782354619994,None,1407.2782354619994,None,right,1,8.84335547199953,1407.2782354619994,None,1,1416.145648253998,None,,,,,,,,,,,,,,,,,,,,,,,,,,,,,,,,,,,,,,,,,,,,,,,,,,,,,,,,,,,,,,,,,,,11,Male,21,001,2021_Mar_09_2131,cal_abstract,2020.2.4,60.132766896104805,
,Fix2,stimuli/Old/16.jpg,left,,,,,,,,,,,0,158,158,158,,,,,,,,,,,,,,,,,,,,,,,,,,,,,,,,,,,1416.9117696989997,None,1416.9117696989997,None,left,1,0.912612000000081,1416.9117696989997,None,1,1417.8449070819988,None,,,,,,,,,,,,,,,,,,,,,,,,,,,,,,,,,,,,,,,,,,,,,,,,,,,,,,,,,,,,,,,,,,,11,Male,21,001,2021_Mar_09_2131,cal_abstract,2020.2.4,60.132766896104805,
,Cond,stimuli/Wealth/18.jpg,right,,,,,,,,,,,0,159,159,159,,,,,,,,,,,,,,,,,,,,,,,,,,,,,,,,,,,1418.6291141990005,None,1418.6291141990005,None,right,1,1.5533177300021634,1418.6291141990005,None,1,1420.2125557489999,None,,,,,,,,,,,,,,,,,,,,,,,,,,,,,,,,,,,,,,,,,,,,,,,,,,,,,,,,,,,,,,,,,,,11,Male,21,001,2021_Mar_09_2131,cal_abstract,2020.2.4,60.132766896104805,
,Fix1,stimuli/Healthy/38.jpg,right,,,,,,,,,,,0,160,160,160,,,,,,,,,,,,,,,,,,,,,,,,,,,,,,,,,,,1420.9789217819998,None,1420.9789217819998,None,right,1,0.6663757299975259,1420.9789217819998,None,1,1421.6623528419987,None,,,,,,,,,,,,,,,,,,,,,,,,,,,,,,,,,,,,,,,,,,,,,,,,,,,,,,,,,,,,,,,,,,,11,Male,21,001,2021_Mar_09_2131,cal_abstract,2020.2.4,60.132766896104805,
,Fix1,stimuli/Healthy/57.jpg,right,,,,,,,,,,,0,161,161,161,,,,,,,,,,,,,,,,,,,,,,,,,,,,,,,,,,,1422.429353686999,None,1422.429353686999,None,right,1,1.83355148299961,1422.429353686999,None,1,1424.2959348590011,None,,,,,,,,,,,,,,,,,,,,,,,,,,,,,,,,,,,,,,,,,,,,,,,,,,,,,,,,,,,,,,,,,,,11,Male,21,001,2021_Mar_09_2131,cal_abstract,2020.2.4,60.132766896104805,
,Fix2,stimuli/Old/56.jpg,left,,,,,,,,,,,0,162,162,162,,,,,,,,,,,,,,,,,,,,,,,,,,,,,,,,,,,1425.0626505420005,None,1425.0626505420005,None,left,1,0.9253156230006425,1425.0626505420005,None,1,1426.0127261540001,None,,,,,,,,,,,,,,,,,,,,,,,,,,,,,,,,,,,,,,,,,,,,,,,,,,,,,,,,,,,,,,,,,,,11,Male,21,001,2021_Mar_09_2131,cal_abstract,2020.2.4,60.132766896104805,
,Cond,stimuli/Wealth/36.jpg,right,,,,,,,,,,,0,163,163,163,,,,,,,,,,,,,,,,,,,,,,,,,,,,,,,,,,,1426.779641254001,None,1426.779641254001,None,right,1,1.8692860619994462,1426.779641254001,None,1,1428.6795367419982,None,,,,,,,,,,,,,,,,,,,,,,,,,,,,,,,,,,,,,,,,,,,,,,,,,,,,,,,,,,,,,,,,,,,11,Male,21,001,2021_Mar_09_2131,cal_abstract,2020.2.4,60.132766896104805,
,Fix2,stimuli/Old/39.jpg,left,,,,,,,,,,,0,164,164,164,,,,,,,,,,,,,,,,,,,,,,,,,,,,,,,,,,,1429.4463631090002,None,1429.4463631090002,None,left,1,0.6713432100004866,1429.4463631090002,None,1,1430.146116207001,None,,,,,,,,,,,,,,,,,,,,,,,,,,,,,,,,,,,,,,,,,,,,,,,,,,,,,,,,,,,,,,,,,,,11,Male,21,001,2021_Mar_09_2131,cal_abstract,2020.2.4,60.132766896104805,
,Fix1,stimuli/Healthy/13.jpg,right,,,,,,,,,,,0,165,165,165,,,,,,,,,,,,,,,,,,,,,,,,,,,,,,,,,,,1430.9127615569996,None,1430.9127615569996,None,right,1,2.210569930000929,1430.9127615569996,None,1,1433.1465876269976,None,,,,,,,,,,,,,,,,,,,,,,,,,,,,,,,,,,,,,,,,,,,,,,,,,,,,,,,,,,,,,,,,,,,11,Male,21,001,2021_Mar_09_2131,cal_abstract,2020.2.4,60.132766896104805,
,Fix2,stimuli/Old/23.jpg,left,,,,,,,,,,,0,166,166,166,,,,,,,,,,,,,,,,,,,,,,,,,,,,,,,,,,,1433.9134126190002,None,1433.9134126190002,None,left,1,1.0700856629991904,1433.9134126190002,None,1,1435.0134182889997,None,,,,,,,,,,,,,,,,,,,,,,,,,,,,,,,,,,,,,,,,,,,,,,,,,,,,,,,,,,,,,,,,,,,11,Male,21,001,2021_Mar_09_2131,cal_abstract,2020.2.4,60.132766896104805,
,Cond,stimuli/Wealth/41.jpg,right,,,,,,,,,,,0,167,167,167,,,,,,,,,,,,,,,,,,,,,,,,,,,,,,,,,,,1435.7801854589998,None,1435.7801854589998,None,left,0,10.507056039998133,1435.7801854589998,None,0,1446.3134069039988,None,,,,,,,,,,,,,,,,,,,,,,,,,,,,,,,,,,,,,,,,,,,,,,,,,,,,,,,,,,,,,,,,,,,11,Male,21,001,2021_Mar_09_2131,cal_abstract,2020.2.4,60.132766896104805,
,Fix2,stimuli/Old/54.jpg,left,,,,,,,,,,,0,168,168,168,,,,,,,,,,,,,,,,,,,,,,,,,,,,,,,,,,,1447.0808504569977,None,1447.0808504569977,None,left,1,2.626158758001111,1447.0808504569977,None,1,1449.7310628689993,None,,,,,,,,,,,,,,,,,,,,,,,,,,,,,,,,,,,,,,,,,,,,,,,,,,,,,,,,,,,,,,,,,,,11,Male,21,001,2021_Mar_09_2131,cal_abstract,2020.2.4,60.132766896104805,
,Fix2,stimuli/Old/57.jpg,left,,,,,,,,,,,0,169,169,169,,,,,,,,,,,,,,,,,,,,,,,,,,,,,,,,,,,1450.4974310969992,None,1450.4974310969992,None,left,1,0.6785243750018708,1450.4974310969992,None,1,1451.1976666289993,None,,,,,,,,,,,,,,,,,,,,,,,,,,,,,,,,,,,,,,,,,,,,,,,,,,,,,,,,,,,,,,,,,,,11,Male,21,001,2021_Mar_09_2131,cal_abstract,2020.2.4,60.132766896104805,
,Cond,stimuli/Wealth/44.jpg,right,,,,,,,,,,,0,170,170,170,,,,,,,,,,,,,,,,,,,,,,,,,,,,,,,,,,,1451.9645441020002,None,1451.9645441020002,None,right,1,1.1432917029997043,1451.9645441020002,None,1,1453.1310852819988,None,,,,,,,,,,,,,,,,,,,,,,,,,,,,,,,,,,,,,,,,,,,,,,,,,,,,,,,,,,,,,,,,,,,11,Male,21,001,2021_Mar_09_2131,cal_abstract,2020.2.4,60.132766896104805,
,Cond,stimuli/Wealth/29.jpg,left,,,,,,,,,,,0,171,171,171,,,,,,,,,,,,,,,,,,,,,,,,,,,,,,,,,,,1453.8980592419975,None,1453.8980592419975,None,right,0,16.771791945000587,1453.8980592419975,None,0,1470.6990085440011,None,,,,,,,,,,,,,,,,,,,,,,,,,,,,,,,,,,,,,,,,,,,,,,,,,,,,,,,,,,,,,,,,,,,11,Male,21,001,2021_Mar_09_2131,cal_abstract,2020.2.4,60.132766896104805,
,Fix2,stimuli/Old/35.jpg,left,,,,,,,,,,,0,172,172,172,,,,,,,,,,,,,,,,,,,,,,,,,,,,,,,,,,,1471.4828383569984,None,1471.4828383569984,None,left,1,17.79139328200108,1471.4828383569984,None,1,1489.300449077,None,,,,,,,,,,,,,,,,,,,,,,,,,,,,,,,,,,,,,,,,,,,,,,,,,,,,,,,,,,,,,,,,,,,11,Male,21,001,2021_Mar_09_2131,cal_abstract,2020.2.4,60.132766896104805,
,Cond,stimuli/Wealth/47.jpg,right,,,,,,,,,,,0,173,173,173,,,,,,,,,,,,,,,,,,,,,,,,,,,,,,,,,,,1490.067307393998,None,1490.067307393998,None,right,1,2.1505428430027678,1490.067307393998,None,1,1492.250390508998,None,,,,,,,,,,,,,,,,,,,,,,,,,,,,,,,,,,,,,,,,,,,,,,,,,,,,,,,,,,,,,,,,,,,11,Male,21,001,2021_Mar_09_2131,cal_abstract,2020.2.4,60.132766896104805,
,Fix2,stimuli/Old/30.jpg,left,,,,,,,,,,,0,174,174,174,,,,,,,,,,,,,,,,,,,,,,,,,,,,,,,,,,,1493.017350817001,None,1493.017350817001,None,left,1,1.8475456849992042,1493.017350817001,None,1,1494.8842155489983,None,,,,,,,,,,,,,,,,,,,,,,,,,,,,,,,,,,,,,,,,,,,,,,,,,,,,,,,,,,,,,,,,,,,11,Male,21,001,2021_Mar_09_2131,cal_abstract,2020.2.4,60.132766896104805,
,Fix1,stimuli/Healthy/43.jpg,right,,,,,,,,,,,0,175,175,175,,,,,,,,,,,,,,,,,,,,,,,,,,,,,,,,,,,1495.6536355869976,None,1495.6536355869976,None,right,1,1.35401597499731,1495.6536355869976,None,1,1497.034164886998,None,,,,,,,,,,,,,,,,,,,,,,,,,,,,,,,,,,,,,,,,,,,,,,,,,,,,,,,,,,,,,,,,,,,11,Male,21,001,2021_Mar_09_2131,cal_abstract,2020.2.4,60.132766896104805,
,Cond,stimuli/Wealth/39.jpg,left,,,,,,,,,,,0,176,176,176,,,,,,,,,,,,,,,,,,,,,,,,,,,,,,,,,,,1497.8011957519993,None,1497.8011957519993,None,left,1,0.6263906350031903,1497.8011957519993,None,1,1498.451195933998,None,,,,,,,,,,,,,,,,,,,,,,,,,,,,,,,,,,,,,,,,,,,,,,,,,,,,,,,,,,,,,,,,,,,11,Male,21,001,2021_Mar_09_2131,cal_abstract,2020.2.4,60.132766896104805,
,Cond,stimuli/Wealth/52.jpg,right,,,,,,,,,,,0,177,177,177,,,,,,,,,,,,,,,,,,,,,,,,,,,,,,,,,,,1499.217718953998,None,1499.217718953998,None,right,1,0.9468205449993548,1499.217718953998,None,1,1500.1845745389983,None,,,,,,,,,,,,,,,,,,,,,,,,,,,,,,,,,,,,,,,,,,,,,,,,,,,,,,,,,,,,,,,,,,,11,Male,21,001,2021_Mar_09_2131,cal_abstract,2020.2.4,60.132766896104805,
,Fix1,stimuli/Healthy/50.jpg,right,,,,,,,,,,,0,178,178,178,,,,,,,,,,,,,,,,,,,,,,,,,,,,,,,,,,,1500.9512331820006,None,1500.9512331820006,None,right,1,0.7362050150004507,1500.9512331820006,None,1,1501.7179210239992,None,,,,,,,,,,,,,,,,,,,,,,,,,,,,,,,,,,,,,,,,,,,,,,,,,,,,,,,,,,,,,,,,,,,11,Male,21,001,2021_Mar_09_2131,cal_abstract,2020.2.4,60.132766896104805,
,Cond,stimuli/Wealth/17.jpg,left,,,,,,,,,,,0,179,179,179,,,,,,,,,,,,,,,,,,,,,,,,,,,,,,,,,,,1502.5014961339984,None,1502.5014961339984,None,left,1,0.6896836449996044,1502.5014961339984,None,1,1503.2175460689978,None,,,,,,,,,,,,,,,,,,,,,,,,,,,,,,,,,,,,,,,,,,,,,,,,,,,,,,,,,,,,,,,,,,,11,Male,21,001,2021_Mar_09_2131,cal_abstract,2020.2.4,60.132766896104805,
,,,,,,,,,,,,,,,,,,,,,,,,,,,,,,,,,,,,,,,,,,,,,,,,,,,,,,,,,,,,,,,,1503.9682919320003,None,c,9.588282419997995,1503.9682919320003,None,,,,,,,,,,,,,,,,,,,,,,,,,,,,,,,,,,,,,,,,,,,,,,,,,,,,,,,,,,,,,11,Male,21,001,2021_Mar_09_2131,cal_abstract,2020.2.4,60.132766896104805,
,,,,,,,,,,,,,,,,,,,,,,,,,,,,,,,,,,,,,,,,,,,,,,,,,,,,,,,,,,,,,,,,,,,,,,1513.5852812490011,None,1513.5852812490011,None,return,3.996824267996999,1513.5852812490011,None,,,,,,,,,,,,,,,,,,,,,,,,,,,,,,,,,,,,,,,,,,,,,,,,,,,,,11,Male,21,001,2021_Mar_09_2131,cal_abstract,2020.2.4,60.132766896104805,
,,,,,,,,,,,,,,,,,,,,,,,,,,,,,,,,,,,,,,,,,,,,,,,,,,,,,,,,,,,,,,,,,,,,,,,,,,,,,,1517.6026035289979,None,1517.6026035289979,None,s,1.6491724229999818,1517.6026035289979,None,,,,,,,,,,,,,,,,,,,,,,,,,,,,,,,,,,,,,,,,,,,,,11,Male,21,001,2021_Mar_09_2131,cal_abstract,2020.2.4,60.132766896104805,
,,,,Fix2,stimuli/Sad/6.jpg,left,,,,,,,,,,,,0,0,0,0,,,,,,,,,,,,,,,,,,,,,,,,,,,,,,,,,,,,,,,,1,,,,,,,,,,,,,,,,,,,,,,,,,1519.3026295319978,None,1519.3026295319978,None,left,1,2.1518528170017817,1519.3026295319978,None,1521.5027283339987,None,,,,,,,,,,,,,,,,,,,,,,,,,,,,,,,,,,11,Male,21,001,2021_Mar_09_2131,cal_abstract,2020.2.4,60.132766896104805,
,,,,Fix2,stimuli/Sad/11.jpg,left,,,,,,,,,,,,0,1,1,1,,,,,,,,,,,,,,,,,,,,,,,,,,,,,,,,,,,,,,,,1,,,,,,,,,,,,,,,,,,,,,,,,,1522.2695062169987,None,1522.2695062169987,None,left,1,0.7310101180009951,1522.2695062169987,None,1523.0184141319987,None,,,,,,,,,,,,,,,,,,,,,,,,,,,,,,,,,,11,Male,21,001,2021_Mar_09_2131,cal_abstract,2020.2.4,60.132766896104805,
,,,,Fix2,stimuli/Sad/23.jpg,left,,,,,,,,,,,,0,2,2,2,,,,,,,,,,,,,,,,,,,,,,,,,,,,,,,,,,,,,,,,1,,,,,,,,,,,,,,,,,,,,,,,,,1523.7864310939985,None,1523.7864310939985,None,left,1,0.532916035001108,1523.7864310939985,None,1524.335375579998,None,,,,,,,,,,,,,,,,,,,,,,,,,,,,,,,,,,11,Male,21,001,2021_Mar_09_2131,cal_abstract,2020.2.4,60.132766896104805,
,,,,Fix1,stimuli/School/43.jpg,right,,,,,,,,,,,,0,3,3,3,,,,,,,,,,,,,,,,,,,,,,,,,,,,,,,,,,,,,,,,1,,,,,,,,,,,,,,,,,,,,,,,,,1525.1030924019979,None,1525.1030924019979,None,right,1,1.181371221999143,1525.1030924019979,None,1526.3029314240011,None,,,,,,,,,,,,,,,,,,,,,,,,,,,,,,,,,,11,Male,21,001,2021_Mar_09_2131,cal_abstract,2020.2.4,60.132766896104805,
,,,,Fix2,stimuli/Sad/30.jpg,left,,,,,,,,,,,,0,4,4,4,,,,,,,,,,,,,,,,,,,,,,,,,,,,,,,,,,,,,,,,1,,,,,,,,,,,,,,,,,,,,,,,,,1527.0693886519985,None,1527.0693886519985,None,left,1,0.6685626420003246,1527.0693886519985,None,1527.7699299970009,None,,,,,,,,,,,,,,,,,,,,,,,,,,,,,,,,,,11,Male,21,001,2021_Mar_09_2131,cal_abstract,2020.2.4,60.132766896104805,
,,,,Fix1,stimuli/School/46.jpg,right,,,,,,,,,,,,0,5,5,5,,,,,,,,,,,,,,,,,,,,,,,,,,,,,,,,,,,,,,,,1,,,,,,,,,,,,,,,,,,,,,,,,,1528.5367791219978,None,1528.5367791219978,None,right,1,2.7130047400023614,1528.5367791219978,None,1531.2696825870007,None,,,,,,,,,,,,,,,,,,,,,,,,,,,,,,,,,,11,Male,21,001,2021_Mar_09_2131,cal_abstract,2020.2.4,60.132766896104805,
,,,,Cond,stimuli/Soft/21.jpg,left,,,,,,,,,,,,0,6,6,6,,,,,,,,,,,,,,,,,,,,,,,,,,,,,,,,,,,,,,,,1,,,,,,,,,,,,,,,,,,,,,,,,,1532.0365557170007,None,1532.0365557170007,None,left,1,1.728178614997887,1532.0365557170007,None,1533.7869651670007,None,,,,,,,,,,,,,,,,,,,,,,,,,,,,,,,,,,11,Male,21,001,2021_Mar_09_2131,cal_abstract,2020.2.4,60.132766896104805,
,,,,Fix2,stimuli/Sad/26.jpg,left,,,,,,,,,,,,0,7,7,7,,,,,,,,,,,,,,,,,,,,,,,,,,,,,,,,,,,,,,,,1,,,,,,,,,,,,,,,,,,,,,,,,,1534.5536955169991,None,1534.5536955169991,None,left,1,1.5468456150010752,1534.5536955169991,None,1536.1202486719994,None,,,,,,,,,,,,,,,,,,,,,,,,,,,,,,,,,,11,Male,21,001,2021_Mar_09_2131,cal_abstract,2020.2.4,60.132766896104805,
,,,,Fix1,stimuli/School/27.jpg,right,,,,,,,,,,,,0,8,8,8,,,,,,,,,,,,,,,,,,,,,,,,,,,,,,,,,,,,,,,,1,,,,,,,,,,,,,,,,,,,,,,,,,1536.8874028120008,None,1536.8874028120008,None,right,1,1.4399753949983278,1536.8874028120008,None,1538.3538205969999,None,,,,,,,,,,,,,,,,,,,,,,,,,,,,,,,,,,11,Male,21,001,2021_Mar_09_2131,cal_abstract,2020.2.4,60.132766896104805,
,,,,Fix1,stimuli/School/11.jpg,right,,,,,,,,,,,,0,9,9,9,,,,,,,,,,,,,,,,,,,,,,,,,,,,,,,,,,,,,,,,1,,,,,,,,,,,,,,,,,,,,,,,,,1539.1202603710008,None,1539.1202603710008,None,right,1,1.718872547000501,1539.1202603710008,None,1540.8705781789977,None,,,,,,,,,,,,,,,,,,,,,,,,,,,,,,,,,,11,Male,21,001,2021_Mar_09_2131,cal_abstract,2020.2.4,60.132766896104805,
,,,,Cond,stimuli/Soft/48.jpg,left,,,,,,,,,,,,0,10,10,10,,,,,,,,,,,,,,,,,,,,,,,,,,,,,,,,,,,,,,,,0,,,,,,,,,,,,,,,,,,,,,,,,,1541.6375697170006,None,1541.6375697170006,None,right,0,6.658910982001544,1541.6375697170006,None,1548.3211342369978,None,,,,,,,,,,,,,,,,,,,,,,,,,,,,,,,,,,11,Male,21,001,2021_Mar_09_2131,cal_abstract,2020.2.4,60.132766896104805,
,,,,Fix2,stimuli/Sad/47.jpg,left,,,,,,,,,,,,0,11,11,11,,,,,,,,,,,,,,,,,,,,,,,,,,,,,,,,,,,,,,,,1,,,,,,,,,,,,,,,,,,,,,,,,,1549.0880750819997,None,1549.0880750819997,None,left,1,0.9072006630012766,1549.0880750819997,None,1550.0209265619997,None,,,,,,,,,,,,,,,,,,,,,,,,,,,,,,,,,,11,Male,21,001,2021_Mar_09_2131,cal_abstract,2020.2.4,60.132766896104805,
,,,,Cond,stimuli/Soft/44.jpg,right,,,,,,,,,,,,0,12,12,12,,,,,,,,,,,,,,,,,,,,,,,,,,,,,,,,,,,,,,,,1,,,,,,,,,,,,,,,,,,,,,,,,,1550.788112416998,None,1550.788112416998,None,right,1,3.532943884998531,1550.788112416998,None,1554.3383092820004,None,,,,,,,,,,,,,,,,,,,,,,,,,,,,,,,,,,11,Male,21,001,2021_Mar_09_2131,cal_abstract,2020.2.4,60.132766896104805,
,,,,Cond,stimuli/Soft/33.jpg,left,,,,,,,,,,,,0,13,13,13,,,,,,,,,,,,,,,,,,,,,,,,,,,,,,,,,,,,,,,,1,,,,,,,,,,,,,,,,,,,,,,,,,1555.1056296120005,None,1555.1056296120005,None,left,1,0.9082661850006843,1555.1056296120005,None,1556.0384175069994,None,,,,,,,,,,,,,,,,,,,,,,,,,,,,,,,,,,11,Male,21,001,2021_Mar_09_2131,cal_abstract,2020.2.4,60.132766896104805,
,,,,Fix2,stimuli/Sad/53.jpg,left,,,,,,,,,,,,0,14,14,14,,,,,,,,,,,,,,,,,,,,,,,,,,,,,,,,,,,,,,,,1,,,,,,,,,,,,,,,,,,,,,,,,,1556.8051693239977,None,1556.8051693239977,None,left,1,0.5674795999984781,1556.8051693239977,None,1557.4051319819991,None,,,,,,,,,,,,,,,,,,,,,,,,,,,,,,,,,,11,Male,21,001,2021_Mar_09_2131,cal_abstract,2020.2.4,60.132766896104805,
,,,,Fix2,stimuli/Sad/2.jpg,left,,,,,,,,,,,,0,15,15,15,,,,,,,,,,,,,,,,,,,,,,,,,,,,,,,,,,,,,,,,1,,,,,,,,,,,,,,,,,,,,,,,,,1558.1720142390004,None,1558.1720142390004,None,left,1,0.5005566899999394,1558.1720142390004,None,1558.7053109439985,None,,,,,,,,,,,,,,,,,,,,,,,,,,,,,,,,,,11,Male,21,001,2021_Mar_09_2131,cal_abstract,2020.2.4,60.132766896104805,
,,,,Fix2,stimuli/Sad/58.jpg,left,,,,,,,,,,,,0,16,16,16,,,,,,,,,,,,,,,,,,,,,,,,,,,,,,,,,,,,,,,,1,,,,,,,,,,,,,,,,,,,,,,,,,1559.472343532001,None,1559.472343532001,None,left,1,0.5752869620009733,1559.472343532001,None,1560.0719974269996,None,,,,,,,,,,,,,,,,,,,,,,,,,,,,,,,,,,11,Male,21,001,2021_Mar_09_2131,cal_abstract,2020.2.4,60.132766896104805,
,,,,Cond,stimuli/Soft/8.jpg,right,,,,,,,,,,,,0,17,17,17,,,,,,,,,,,,,,,,,,,,,,,,,,,,,,,,,,,,,,,,1,,,,,,,,,,,,,,,,,,,,,,,,,1560.838792956998,None,1560.838792956998,None,right,1,1.7856213649974961,1560.838792956998,None,1562.6555791290011,None,,,,,,,,,,,,,,,,,,,,,,,,,,,,,,,,,,11,Male,21,001,2021_Mar_09_2131,cal_abstract,2020.2.4,60.132766896104805,
,,,,Fix1,stimuli/School/59.jpg,right,,,,,,,,,,,,0,18,18,18,,,,,,,,,,,,,,,,,,,,,,,,,,,,,,,,,,,,,,,,0,,,,,,,,,,,,,,,,,,,,,,,,,1563.4223514090008,None,1563.4223514090008,None,left,0,1.9049590920003538,1563.4223514090008,None,1565.3558029790001,None,,,,,,,,,,,,,,,,,,,,,,,,,,,,,,,,,,11,Male,21,001,2021_Mar_09_2131,cal_abstract,2020.2.4,60.132766896104805,
,,,,Cond,stimuli/Soft/50.jpg,left,,,,,,,,,,,,0,19,19,19,,,,,,,,,,,,,,,,,,,,,,,,,,,,,,,,,,,,,,,,0,,,,,,,,,,,,,,,,,,,,,,,,,1566.1221903219994,None,1566.1221903219994,None,right,0,2.5788898300015717,1566.1221903219994,None,1568.722722696999,None,,,,,,,,,,,,,,,,,,,,,,,,,,,,,,,,,,11,Male,21,001,2021_Mar_09_2131,cal_abstract,2020.2.4,60.132766896104805,
,,,,Fix2,stimuli/Sad/41.jpg,left,,,,,,,,,,,,0,20,20,20,,,,,,,,,,,,,,,,,,,,,,,,,,,,,,,,,,,,,,,,1,,,,,,,,,,,,,,,,,,,,,,,,,1569.4895549190005,None,1569.4895549190005,None,left,1,0.9214208619996498,1569.4895549190005,None,1570.4391560820004,None,,,,,,,,,,,,,,,,,,,,,,,,,,,,,,,,,,11,Male,21,001,2021_Mar_09_2131,cal_abstract,2020.2.4,60.132766896104805,
,,,,Fix1,stimuli/School/32.jpg,right,,,,,,,,,,,,0,21,21,21,,,,,,,,,,,,,,,,,,,,,,,,,,,,,,,,,,,,,,,,0,,,,,,,,,,,,,,,,,,,,,,,,,1571.2062046719984,None,1571.2062046719984,None,left,0,1.9657025150008849,1571.2062046719984,None,1573.189279383998,None,,,,,,,,,,,,,,,,,,,,,,,,,,,,,,,,,,11,Male,21,001,2021_Mar_09_2131,cal_abstract,2020.2.4,60.132766896104805,
,,,,Cond,stimuli/Soft/40.jpg,left,,,,,,,,,,,,0,22,22,22,,,,,,,,,,,,,,,,,,,,,,,,,,,,,,,,,,,,,,,,0,,,,,,,,,,,,,,,,,,,,,,,,,1573.956435387001,None,1573.956435387001,None,right,0,0.7901401929993881,1573.956435387001,None,1574.7731184570002,None,,,,,,,,,,,,,,,,,,,,,,,,,,,,,,,,,,11,Male,21,001,2021_Mar_09_2131,cal_abstract,2020.2.4,60.132766896104805,
,,,,Fix2,stimuli/Sad/25.jpg,left,,,,,,,,,,,,0,23,23,23,,,,,,,,,,,,,,,,,,,,,,,,,,,,,,,,,,,,,,,,1,,,,,,,,,,,,,,,,,,,,,,,,,1575.539895908998,None,1575.539895908998,None,left,1,2.2656191750029393,1575.539895908998,None,1577.8232934519983,None,,,,,,,,,,,,,,,,,,,,,,,,,,,,,,,,,,11,Male,21,001,2021_Mar_09_2131,cal_abstract,2020.2.4,60.132766896104805,
,,,,Fix1,stimuli/School/49.jpg,right,,,,,,,,,,,,0,24,24,24,,,,,,,,,,,,,,,,,,,,,,,,,,,,,,,,,,,,,,,,1,,,,,,,,,,,,,,,,,,,,,,,,,1578.5905270639996,None,1578.5905270639996,None,right,1,4.451506088997121,1578.5905270639996,None,1583.0735835119995,None,,,,,,,,,,,,,,,,,,,,,,,,,,,,,,,,,,11,Male,21,001,2021_Mar_09_2131,cal_abstract,2020.2.4,60.132766896104805,
,,,,Fix2,stimuli/Sad/24.jpg,left,,,,,,,,,,,,0,25,25,25,,,,,,,,,,,,,,,,,,,,,,,,,,,,,,,,,,,,,,,,1,,,,,,,,,,,,,,,,,,,,,,,,,1583.8404707619993,None,1583.8404707619993,None,left,1,0.6655658449999464,1583.8404707619993,None,1584.5237275590007,None,,,,,,,,,,,,,,,,,,,,,,,,,,,,,,,,,,11,Male,21,001,2021_Mar_09_2131,cal_abstract,2020.2.4,60.132766896104805,
,,,,Fix1,stimuli/School/56.jpg,right,,,,,,,,,,,,0,26,26,26,,,,,,,,,,,,,,,,,,,,,,,,,,,,,,,,,,,,,,,,1,,,,,,,,,,,,,,,,,,,,,,,,,1585.2905468440003,None,1585.2905468440003,None,right,1,1.2562066819991742,1585.2905468440003,None,1586.5727184889984,None,,,,,,,,,,,,,,,,,,,,,,,,,,,,,,,,,,11,Male,21,001,2021_Mar_09_2131,cal_abstract,2020.2.4,60.132766896104805,
,,,,Cond,stimuli/Soft/45.jpg,left,,,,,,,,,,,,0,27,27,27,,,,,,,,,,,,,,,,,,,,,,,,,,,,,,,,,,,,,,,,1,,,,,,,,,,,,,,,,,,,,,,,,,1587.3576062969987,None,1587.3576062969987,None,left,1,1.9871902779996162,1587.3576062969987,None,1589.3740964520002,None,,,,,,,,,,,,,,,,,,,,,,,,,,,,,,,,,,11,Male,21,001,2021_Mar_09_2131,cal_abstract,2020.2.4,60.132766896104805,
,,,,Fix2,stimuli/Sad/57.jpg,left,,,,,,,,,,,,0,28,28,28,,,,,,,,,,,,,,,,,,,,,,,,,,,,,,,,,,,,,,,,1,,,,,,,,,,,,,,,,,,,,,,,,,1590.1408733089993,None,1590.1408733089993,None,left,1,5.985501095001382,1590.1408733089993,None,1596.1578348969997,None,,,,,,,,,,,,,,,,,,,,,,,,,,,,,,,,,,11,Male,21,001,2021_Mar_09_2131,cal_abstract,2020.2.4,60.132766896104805,
,,,,Fix2,stimuli/Sad/51.jpg,left,,,,,,,,,,,,0,29,29,29,,,,,,,,,,,,,,,,,,,,,,,,,,,,,,,,,,,,,,,,1,,,,,,,,,,,,,,,,,,,,,,,,,1596.9246574120007,None,1596.9246574120007,None,left,1,11.717336189998605,1596.9246574120007,None,1608.6756205839993,None,,,,,,,,,,,,,,,,,,,,,,,,,,,,,,,,,,11,Male,21,001,2021_Mar_09_2131,cal_abstract,2020.2.4,60.132766896104805,
,,,,Fix2,stimuli/Sad/56.jpg,left,,,,,,,,,,,,0,30,30,30,,,,,,,,,,,,,,,,,,,,,,,,,,,,,,,,,,,,,,,,1,,,,,,,,,,,,,,,,,,,,,,,,,1609.4416614639995,None,1609.4416614639995,None,left,1,0.9957910800003447,1609.4416614639995,None,1610.4583677869996,None,,,,,,,,,,,,,,,,,,,,,,,,,,,,,,,,,,11,Male,21,001,2021_Mar_09_2131,cal_abstract,2020.2.4,60.132766896104805,
,,,,Cond,stimuli/Soft/2.jpg,right,,,,,,,,,,,,0,31,31,31,,,,,,,,,,,,,,,,,,,,,,,,,,,,,,,,,,,,,,,,1,,,,,,,,,,,,,,,,,,,,,,,,,1611.226340579,None,1611.226340579,None,right,1,1.0998098569980357,1611.226340579,None,1612.3589794020008,None,,,,,,,,,,,,,,,,,,,,,,,,,,,,,,,,,,11,Male,21,001,2021_Mar_09_2131,cal_abstract,2020.2.4,60.132766896104805,
,,,,Cond,stimuli/Soft/25.jpg,left,,,,,,,,,,,,0,32,32,32,,,,,,,,,,,,,,,,,,,,,,,,,,,,,,,,,,,,,,,,0,,,,,,,,,,,,,,,,,,,,,,,,,1613.1426189390004,None,1613.1426189390004,None,right,0,0.7945877070014831,1613.1426189390004,None,1613.9590304470003,None,,,,,,,,,,,,,,,,,,,,,,,,,,,,,,,,,,11,Male,21,001,2021_Mar_09_2131,cal_abstract,2020.2.4,60.132766896104805,
,,,,Fix1,stimuli/School/17.jpg,right,,,,,,,,,,,,0,33,33,33,,,,,,,,,,,,,,,,,,,,,,,,,,,,,,,,,,,,,,,,1,,,,,,,,,,,,,,,,,,,,,,,,,1614.7258664939982,None,1614.7258664939982,None,right,1,1.3762026149997837,1614.7258664939982,None,1616.1246824829977,None,,,,,,,,,,,,,,,,,,,,,,,,,,,,,,,,,,11,Male,21,001,2021_Mar_09_2131,cal_abstract,2020.2.4,60.132766896104805,
,,,,Fix1,stimuli/School/51.jpg,right,,,,,,,,,,,,0,34,34,34,,,,,,,,,,,,,,,,,,,,,,,,,,,,,,,,,,,,,,,,1,,,,,,,,,,,,,,,,,,,,,,,,,1616.8927520789985,None,1616.8927520789985,None,right,1,0.8552774769996176,1616.8927520789985,None,1617.7759219639993,None,,,,,,,,,,,,,,,,,,,,,,,,,,,,,,,,,,11,Male,21,001,2021_Mar_09_2131,cal_abstract,2020.2.4,60.132766896104805,
,,,,Fix2,stimuli/Sad/3.jpg,left,,,,,,,,,,,,0,35,35,35,,,,,,,,,,,,,,,,,,,,,,,,,,,,,,,,,,,,,,,,1,,,,,,,,,,,,,,,,,,,,,,,,,1618.5430156969996,None,1618.5430156969996,None,left,1,5.6871787429990945,1618.5430156969996,None,1624.2597482419988,None,,,,,,,,,,,,,,,,,,,,,,,,,,,,,,,,,,11,Male,21,001,2021_Mar_09_2131,cal_abstract,2020.2.4,60.132766896104805,
,,,,Cond,stimuli/Soft/30.jpg,right,,,,,,,,,,,,0,36,36,36,,,,,,,,,,,,,,,,,,,,,,,,,,,,,,,,,,,,,,,,1,,,,,,,,,,,,,,,,,,,,,,,,,1625.043340952001,None,1625.043340952001,None,right,1,9.127157928000088,1625.043340952001,None,1634.1937440670008,None,,,,,,,,,,,,,,,,,,,,,,,,,,,,,,,,,,11,Male,21,001,2021_Mar_09_2131,cal_abstract,2020.2.4,60.132766896104805,
,,,,Fix2,stimuli/Sad/32.jpg,left,,,,,,,,,,,,0,37,37,37,,,,,,,,,,,,,,,,,,,,,,,,,,,,,,,,,,,,,,,,1,,,,,,,,,,,,,,,,,,,,,,,,,1634.9605157369988,None,1634.9605157369988,None,left,1,1.0055989050015341,1634.9605157369988,None,1635.993905438998,None,,,,,,,,,,,,,,,,,,,,,,,,,,,,,,,,,,11,Male,21,001,2021_Mar_09_2131,cal_abstract,2020.2.4,60.132766896104805,
,,,,Cond,stimuli/Soft/17.jpg,right,,,,,,,,,,,,0,38,38,38,,,,,,,,,,,,,,,,,,,,,,,,,,,,,,,,,,,,,,,,0,,,,,,,,,,,,,,,,,,,,,,,,,1636.7602931869988,None,1636.7602931869988,None,left,0,0.953816335000738,1636.7602931869988,None,1637.7443428769984,None,,,,,,,,,,,,,,,,,,,,,,,,,,,,,,,,,,11,Male,21,001,2021_Mar_09_2131,cal_abstract,2020.2.4,60.132766896104805,
,,,,Cond,stimuli/Soft/12.jpg,left,,,,,,,,,,,,0,39,39,39,,,,,,,,,,,,,,,,,,,,,,,,,,,,,,,,,,,,,,,,0,,,,,,,,,,,,,,,,,,,,,,,,,1638.5108974319992,None,1638.5108974319992,None,right,0,7.023508790000051,1638.5108974319992,None,1645.5611811620001,None,,,,,,,,,,,,,,,,,,,,,,,,,,,,,,,,,,11,Male,21,001,2021_Mar_09_2131,cal_abstract,2020.2.4,60.132766896104805,
,,,,Fix1,stimuli/School/21.jpg,right,,,,,,,,,,,,0,40,40,40,,,,,,,,,,,,,,,,,,,,,,,,,,,,,,,,,,,,,,,,1,,,,,,,,,,,,,,,,,,,,,,,,,1646.328096399,None,1646.328096399,None,right,1,1.8493443269981071,1646.328096399,None,1648.1946414369995,None,,,,,,,,,,,,,,,,,,,,,,,,,,,,,,,,,,11,Male,21,001,2021_Mar_09_2131,cal_abstract,2020.2.4,60.132766896104805,
,,,,Fix1,stimuli/School/9.jpg,right,,,,,,,,,,,,0,41,41,41,,,,,,,,,,,,,,,,,,,,,,,,,,,,,,,,,,,,,,,,1,,,,,,,,,,,,,,,,,,,,,,,,,1648.9612748869986,None,1648.9612748869986,None,right,1,0.7418086049983685,1648.9612748869986,None,1649.7279172989984,None,,,,,,,,,,,,,,,,,,,,,,,,,,,,,,,,,,11,Male,21,001,2021_Mar_09_2131,cal_abstract,2020.2.4,60.132766896104805,
,,,,Cond,stimuli/Soft/0.jpg,left,,,,,,,,,,,,0,42,42,42,,,,,,,,,,,,,,,,,,,,,,,,,,,,,,,,,,,,,,,,1,,,,,,,,,,,,,,,,,,,,,,,,,1650.4950115869979,None,1650.4950115869979,None,left,1,0.9839471399973263,1650.4950115869979,None,1651.5117119669994,None,,,,,,,,,,,,,,,,,,,,,,,,,,,,,,,,,,11,Male,21,001,2021_Mar_09_2131,cal_abstract,2020.2.4,60.132766896104805,
,,,,Fix2,stimuli/Sad/44.jpg,left,,,,,,,,,,,,0,43,43,43,,,,,,,,,,,,,,,,,,,,,,,,,,,,,,,,,,,,,,,,1,,,,,,,,,,,,,,,,,,,,,,,,,1652.2785041219977,None,1652.2785041219977,None,left,1,0.6172404579992872,1652.2785041219977,None,1652.9284282820008,None,,,,,,,,,,,,,,,,,,,,,,,,,,,,,,,,,,11,Male,21,001,2021_Mar_09_2131,cal_abstract,2020.2.4,60.132766896104805,
,,,,Fix2,stimuli/Sad/20.jpg,left,,,,,,,,,,,,0,44,44,44,,,,,,,,,,,,,,,,,,,,,,,,,,,,,,,,,,,,,,,,1,,,,,,,,,,,,,,,,,,,,,,,,,1653.695278362,None,1653.695278362,None,left,1,0.6013883249979699,1653.695278362,None,1654.328545938999,None,,,,,,,,,,,,,,,,,,,,,,,,,,,,,,,,,,11,Male,21,001,2021_Mar_09_2131,cal_abstract,2020.2.4,60.132766896104805,
,,,,Fix2,stimuli/Sad/10.jpg,left,,,,,,,,,,,,0,45,45,45,,,,,,,,,,,,,,,,,,,,,,,,,,,,,,,,,,,,,,,,1,,,,,,,,,,,,,,,,,,,,,,,,,1655.0954166289994,None,1655.0954166289994,None,left,1,0.8153089430015825,1655.0954166289994,None,1655.9286039769977,None,,,,,,,,,,,,,,,,,,,,,,,,,,,,,,,,,,11,Male,21,001,2021_Mar_09_2131,cal_abstract,2020.2.4,60.132766896104805,
,,,,Cond,stimuli/Soft/56.jpg,right,,,,,,,,,,,,0,46,46,46,,,,,,,,,,,,,,,,,,,,,,,,,,,,,,,,,,,,,,,,1,,,,,,,,,,,,,,,,,,,,,,,,,1656.6955423020008,None,1656.6955423020008,None,right,1,1.6188676629972178,1656.6955423020008,None,1658.3455363469984,None,,,,,,,,,,,,,,,,,,,,,,,,,,,,,,,,,,11,Male,21,001,2021_Mar_09_2131,cal_abstract,2020.2.4,60.132766896104805,
,,,,Fix1,stimuli/School/54.jpg,right,,,,,,,,,,,,0,47,47,47,,,,,,,,,,,,,,,,,,,,,,,,,,,,,,,,,,,,,,,,1,,,,,,,,,,,,,,,,,,,,,,,,,1659.1123694169983,None,1659.1123694169983,None,right,1,3.117336390001583,1659.1123694169983,None,1662.2624941270005,None,,,,,,,,,,,,,,,,,,,,,,,,,,,,,,,,,,11,Male,21,001,2021_Mar_09_2131,cal_abstract,2020.2.4,60.132766896104805,
,,,,Fix2,stimuli/Sad/50.jpg,left,,,,,,,,,,,,0,48,48,48,,,,,,,,,,,,,,,,,,,,,,,,,,,,,,,,,,,,,,,,1,,,,,,,,,,,,,,,,,,,,,,,,,1663.0295048539992,None,1663.0295048539992,None,left,1,0.6209275830005936,1663.0295048539992,None,1663.6792948539987,None,,,,,,,,,,,,,,,,,,,,,,,,,,,,,,,,,,11,Male,21,001,2021_Mar_09_2131,cal_abstract,2020.2.4,60.132766896104805,
,,,,Cond,stimuli/Soft/58.jpg,right,,,,,,,,,,,,0,49,49,49,,,,,,,,,,,,,,,,,,,,,,,,,,,,,,,,,,,,,,,,1,,,,,,,,,,,,,,,,,,,,,,,,,1664.462650982001,None,1664.462650982001,None,right,1,0.7505116669999552,1664.462650982001,None,1665.2457226589977,None,,,,,,,,,,,,,,,,,,,,,,,,,,,,,,,,,,11,Male,21,001,2021_Mar_09_2131,cal_abstract,2020.2.4,60.132766896104805,
,,,,Cond,stimuli/Soft/57.jpg,left,,,,,,,,,,,,0,50,50,50,,,,,,,,,,,,,,,,,,,,,,,,,,,,,,,,,,,,,,,,1,,,,,,,,,,,,,,,,,,,,,,,,,1666.012665372,None,1666.012665372,None,left,1,0.811553242001537,1666.012665372,None,1666.846062304001,None,,,,,,,,,,,,,,,,,,,,,,,,,,,,,,,,,,11,Male,21,001,2021_Mar_09_2131,cal_abstract,2020.2.4,60.132766896104805,
,,,,Cond,stimuli/Soft/10.jpg,right,,,,,,,,,,,,0,51,51,51,,,,,,,,,,,,,,,,,,,,,,,,,,,,,,,,,,,,,,,,1,,,,,,,,,,,,,,,,,,,,,,,,,1667.6120373689992,None,1667.6120373689992,None,right,1,0.8871486290008761,1667.6120373689992,None,1668.5294132089984,None,,,,,,,,,,,,,,,,,,,,,,,,,,,,,,,,,,11,Male,21,001,2021_Mar_09_2131,cal_abstract,2020.2.4,60.132766896104805,
,,,,Cond,stimuli/Soft/27.jpg,left,,,,,,,,,,,,0,52,52,52,,,,,,,,,,,,,,,,,,,,,,,,,,,,,,,,,,,,,,,,1,,,,,,,,,,,,,,,,,,,,,,,,,1669.2963333189982,None,1669.2963333189982,None,left,1,1.9014582929994504,1669.2963333189982,None,1671.2296239419993,None,,,,,,,,,,,,,,,,,,,,,,,,,,,,,,,,,,11,Male,21,001,2021_Mar_09_2131,cal_abstract,2020.2.4,60.132766896104805,
,,,,Fix1,stimuli/School/58.jpg,right,,,,,,,,,,,,0,53,53,53,,,,,,,,,,,,,,,,,,,,,,,,,,,,,,,,,,,,,,,,1,,,,,,,,,,,,,,,,,,,,,,,,,1671.9964666970009,None,1671.9964666970009,None,right,1,1.361334490000445,1671.9964666970009,None,1673.3799004920002,None,,,,,,,,,,,,,,,,,,,,,,,,,,,,,,,,,,11,Male,21,001,2021_Mar_09_2131,cal_abstract,2020.2.4,60.132766896104805,
,,,,Cond,stimuli/Soft/36.jpg,left,,,,,,,,,,,,0,54,54,54,,,,,,,,,,,,,,,,,,,,,,,,,,,,,,,,,,,,,,,,0,,,,,,,,,,,,,,,,,,,,,,,,,1674.1461974339982,None,1674.1461974339982,None,right,0,12.615769495001587,1674.1461974339982,None,1686.7807625019996,None,,,,,,,,,,,,,,,,,,,,,,,,,,,,,,,,,,11,Male,21,001,2021_Mar_09_2131,cal_abstract,2020.2.4,60.132766896104805,
,,,,Fix1,stimuli/School/15.jpg,right,,,,,,,,,,,,0,55,55,55,,,,,,,,,,,,,,,,,,,,,,,,,,,,,,,,,,,,,,,,1,,,,,,,,,,,,,,,,,,,,,,,,,1687.5476013119987,None,1687.5476013119987,None,right,1,0.722620194999763,1687.5476013119987,None,1688.2975198839995,None,,,,,,,,,,,,,,,,,,,,,,,,,,,,,,,,,,11,Male,21,001,2021_Mar_09_2131,cal_abstract,2020.2.4,60.132766896104805,
,,,,Fix1,stimuli/School/35.jpg,right,,,,,,,,,,,,0,56,56,56,,,,,,,,,,,,,,,,,,,,,,,,,,,,,,,,,,,,,,,,1,,,,,,,,,,,,,,,,,,,,,,,,,1689.0668363219993,None,1689.0668363219993,None,right,1,4.485198115002277,1689.0668363219993,None,1693.5809717869997,None,,,,,,,,,,,,,,,,,,,,,,,,,,,,,,,,,,11,Male,21,001,2021_Mar_09_2131,cal_abstract,2020.2.4,60.132766896104805,
,,,,Cond,stimuli/Soft/9.jpg,left,,,,,,,,,,,,0,57,57,57,,,,,,,,,,,,,,,,,,,,,,,,,,,,,,,,,,,,,,,,1,,,,,,,,,,,,,,,,,,,,,,,,,1694.3482983389986,None,1694.3482983389986,None,left,1,1.3215183399988746,1694.3482983389986,None,1695.6980976689993,None,,,,,,,,,,,,,,,,,,,,,,,,,,,,,,,,,,11,Male,21,001,2021_Mar_09_2131,cal_abstract,2020.2.4,60.132766896104805,
,,,,Fix1,stimuli/School/19.jpg,right,,,,,,,,,,,,0,58,58,58,,,,,,,,,,,,,,,,,,,,,,,,,,,,,,,,,,,,,,,,1,,,,,,,,,,,,,,,,,,,,,,,,,1696.4646242419985,None,1696.4646242419985,None,right,1,1.6920290820016817,1696.4646242419985,None,1698.181483714001,None,,,,,,,,,,,,,,,,,,,,,,,,,,,,,,,,,,11,Male,21,001,2021_Mar_09_2131,cal_abstract,2020.2.4,60.132766896104805,
,,,,Cond,stimuli/Soft/1.jpg,left,,,,,,,,,,,,0,59,59,59,,,,,,,,,,,,,,,,,,,,,,,,,,,,,,,,,,,,,,,,1,,,,,,,,,,,,,,,,,,,,,,,,,1698.9513453590007,None,1698.9513453590007,None,left,1,0.639239970001654,1698.9513453590007,None,1699.614311319001,None,,,,,,,,,,,,,,,,,,,,,,,,,,,,,,,,,,11,Male,21,001,2021_Mar_09_2131,cal_abstract,2020.2.4,60.132766896104805,
,,,,Fix2,stimuli/Sad/54.jpg,left,,,,,,,,,,,,0,60,60,60,,,,,,,,,,,,,,,,,,,,,,,,,,,,,,,,,,,,,,,,1,,,,,,,,,,,,,,,,,,,,,,,,,1700.3817809920001,None,1700.3817809920001,None,left,1,0.5436995929994737,1700.3817809920001,None,1700.9480817820004,None,,,,,,,,,,,,,,,,,,,,,,,,,,,,,,,,,,11,Male,21,001,2021_Mar_09_2131,cal_abstract,2020.2.4,60.132766896104805,
,,,,Fix1,stimuli/School/20.jpg,right,,,,,,,,,,,,0,61,61,61,,,,,,,,,,,,,,,,,,,,,,,,,,,,,,,,,,,,,,,,1,,,,,,,,,,,,,,,,,,,,,,,,,1701.715119381999,None,1701.715119381999,None,right,1,0.8670561379985884,1701.715119381999,None,1702.6147254419993,None,,,,,,,,,,,,,,,,,,,,,,,,,,,,,,,,,,11,Male,21,001,2021_Mar_09_2131,cal_abstract,2020.2.4,60.132766896104805,
,,,,Fix1,stimuli/School/16.jpg,right,,,,,,,,,,,,0,62,62,62,,,,,,,,,,,,,,,,,,,,,,,,,,,,,,,,,,,,,,,,1,,,,,,,,,,,,,,,,,,,,,,,,,1703.3820534469996,None,1703.3820534469996,None,right,1,1.4581763649985078,1703.3820534469996,None,1704.8653747019998,None,,,,,,,,,,,,,,,,,,,,,,,,,,,,,,,,,,11,Male,21,001,2021_Mar_09_2131,cal_abstract,2020.2.4,60.132766896104805,
,,,,Fix1,stimuli/School/52.jpg,right,,,,,,,,,,,,0,63,63,63,,,,,,,,,,,,,,,,,,,,,,,,,,,,,,,,,,,,,,,,1,,,,,,,,,,,,,,,,,,,,,,,,,1705.631891961999,None,1705.631891961999,None,right,1,2.240003932998661,1705.631891961999,None,1707.8988160339977,None,,,,,,,,,,,,,,,,,,,,,,,,,,,,,,,,,,11,Male,21,001,2021_Mar_09_2131,cal_abstract,2020.2.4,60.132766896104805,
,,,,Fix1,stimuli/School/48.jpg,right,,,,,,,,,,,,0,64,64,64,,,,,,,,,,,,,,,,,,,,,,,,,,,,,,,,,,,,,,,,1,,,,,,,,,,,,,,,,,,,,,,,,,1708.665664207001,None,1708.665664207001,None,right,1,2.912987930001691,1708.665664207001,None,1711.599006384,None,,,,,,,,,,,,,,,,,,,,,,,,,,,,,,,,,,11,Male,21,001,2021_Mar_09_2131,cal_abstract,2020.2.4,60.132766896104805,
,,,,Cond,stimuli/Soft/47.jpg,left,,,,,,,,,,,,0,65,65,65,,,,,,,,,,,,,,,,,,,,,,,,,,,,,,,,,,,,,,,,1,,,,,,,,,,,,,,,,,,,,,,,,,1712.3660058019996,None,1712.3660058019996,None,left,1,1.11663754500114,1712.3660058019996,None,1713.5158335220003,None,,,,,,,,,,,,,,,,,,,,,,,,,,,,,,,,,,11,Male,21,001,2021_Mar_09_2131,cal_abstract,2020.2.4,60.132766896104805,
,,,,Fix1,stimuli/School/3.jpg,right,,,,,,,,,,,,0,66,66,66,,,,,,,,,,,,,,,,,,,,,,,,,,,,,,,,,,,,,,,,1,,,,,,,,,,,,,,,,,,,,,,,,,1714.2827811069983,None,1714.2827811069983,None,right,1,0.7708394280016364,1714.2827811069983,None,1715.0823409219993,None,,,,,,,,,,,,,,,,,,,,,,,,,,,,,,,,,,11,Male,21,001,2021_Mar_09_2131,cal_abstract,2020.2.4,60.132766896104805,
,,,,Fix1,stimuli/School/7.jpg,right,,,,,,,,,,,,0,67,67,67,,,,,,,,,,,,,,,,,,,,,,,,,,,,,,,,,,,,,,,,1,,,,,,,,,,,,,,,,,,,,,,,,,1715.8496994439993,None,1715.8496994439993,None,right,1,1.0117398370020965,1715.8496994439993,None,1716.8826121719976,None,,,,,,,,,,,,,,,,,,,,,,,,,,,,,,,,,,11,Male,21,001,2021_Mar_09_2131,cal_abstract,2020.2.4,60.132766896104805,
,,,,Fix1,stimuli/School/57.jpg,right,,,,,,,,,,,,0,68,68,68,,,,,,,,,,,,,,,,,,,,,,,,,,,,,,,,,,,,,,,,1,,,,,,,,,,,,,,,,,,,,,,,,,1717.6490838360005,None,1717.6490838360005,None,right,1,0.9801169309976103,1717.6490838360005,None,1718.649675132001,None,,,,,,,,,,,,,,,,,,,,,,,,,,,,,,,,,,11,Male,21,001,2021_Mar_09_2131,cal_abstract,2020.2.4,60.132766896104805,
,,,,Fix1,stimuli/School/6.jpg,right,,,,,,,,,,,,0,69,69,69,,,,,,,,,,,,,,,,,,,,,,,,,,,,,,,,,,,,,,,,1,,,,,,,,,,,,,,,,,,,,,,,,,1719.4161176540001,None,1719.4161176540001,None,right,1,0.6519918699996197,1719.4161176540001,None,1720.0997380090012,None,,,,,,,,,,,,,,,,,,,,,,,,,,,,,,,,,,11,Male,21,001,2021_Mar_09_2131,cal_abstract,2020.2.4,60.132766896104805,
,,,,Fix2,stimuli/Sad/16.jpg,left,,,,,,,,,,,,0,70,70,70,,,,,,,,,,,,,,,,,,,,,,,,,,,,,,,,,,,,,,,,1,,,,,,,,,,,,,,,,,,,,,,,,,1720.8665830469981,None,1720.8665830469981,None,left,1,0.6185906550017535,1720.8665830469981,None,1721.516371843998,None,,,,,,,,,,,,,,,,,,,,,,,,,,,,,,,,,,11,Male,21,001,2021_Mar_09_2131,cal_abstract,2020.2.4,60.132766896104805,
,,,,Fix2,stimuli/Sad/1.jpg,left,,,,,,,,,,,,0,71,71,71,,,,,,,,,,,,,,,,,,,,,,,,,,,,,,,,,,,,,,,,1,,,,,,,,,,,,,,,,,,,,,,,,,1722.2832954769983,None,1722.2832954769983,None,left,1,1.0667510849998507,1722.2832954769983,None,1723.3827947989994,None,,,,,,,,,,,,,,,,,,,,,,,,,,,,,,,,,,11,Male,21,001,2021_Mar_09_2131,cal_abstract,2020.2.4,60.132766896104805,
,,,,Fix1,stimuli/School/50.jpg,right,,,,,,,,,,,,0,72,72,72,,,,,,,,,,,,,,,,,,,,,,,,,,,,,,,,,,,,,,,,1,,,,,,,,,,,,,,,,,,,,,,,,,1724.1501485490007,None,1724.1501485490007,None,right,1,1.4017596579979,1724.1501485490007,None,1725.582922188998,None,,,,,,,,,,,,,,,,,,,,,,,,,,,,,,,,,,11,Male,21,001,2021_Mar_09_2131,cal_abstract,2020.2.4,60.132766896104805,
,,,,Cond,stimuli/Soft/39.jpg,left,,,,,,,,,,,,0,73,73,73,,,,,,,,,,,,,,,,,,,,,,,,,,,,,,,,,,,,,,,,1,,,,,,,,,,,,,,,,,,,,,,,,,1726.3502242920003,None,1726.3502242920003,None,left,1,0.8935770399984904,1726.3502242920003,None,1727.2669330219978,None,,,,,,,,,,,,,,,,,,,,,,,,,,,,,,,,,,11,Male,21,001,2021_Mar_09_2131,cal_abstract,2020.2.4,60.132766896104805,
,,,,Fix2,stimuli/Sad/45.jpg,left,,,,,,,,,,,,0,74,74,74,,,,,,,,,,,,,,,,,,,,,,,,,,,,,,,,,,,,,,,,1,,,,,,,,,,,,,,,,,,,,,,,,,1728.033164176999,None,1728.033164176999,None,left,1,1.0084567920021072,1728.033164176999,None,1729.0669015120002,None,,,,,,,,,,,,,,,,,,,,,,,,,,,,,,,,,,11,Male,21,001,2021_Mar_09_2131,cal_abstract,2020.2.4,60.132766896104805,
,,,,Fix2,stimuli/Sad/27.jpg,left,,,,,,,,,,,,0,75,75,75,,,,,,,,,,,,,,,,,,,,,,,,,,,,,,,,,,,,,,,,1,,,,,,,,,,,,,,,,,,,,,,,,,1729.8341035970006,None,1729.8341035970006,None,left,1,1.470466212998872,1729.8341035970006,None,1731.3337168119979,None,,,,,,,,,,,,,,,,,,,,,,,,,,,,,,,,,,11,Male,21,001,2021_Mar_09_2131,cal_abstract,2020.2.4,60.132766896104805,
,,,,Fix2,stimuli/Sad/59.jpg,left,,,,,,,,,,,,0,76,76,76,,,,,,,,,,,,,,,,,,,,,,,,,,,,,,,,,,,,,,,,1,,,,,,,,,,,,,,,,,,,,,,,,,1732.100163299001,None,1732.100163299001,None,left,1,0.49940215300011914,1732.100163299001,None,1732.6172339820005,None,,,,,,,,,,,,,,,,,,,,,,,,,,,,,,,,,,11,Male,21,001,2021_Mar_09_2131,cal_abstract,2020.2.4,60.132766896104805,
,,,,Fix2,stimuli/Sad/46.jpg,left,,,,,,,,,,,,0,77,77,77,,,,,,,,,,,,,,,,,,,,,,,,,,,,,,,,,,,,,,,,1,,,,,,,,,,,,,,,,,,,,,,,,,1733.3843612019991,None,1733.3843612019991,None,left,1,0.5811201780015836,1733.3843612019991,None,1733.9840366989993,None,,,,,,,,,,,,,,,,,,,,,,,,,,,,,,,,,,11,Male,21,001,2021_Mar_09_2131,cal_abstract,2020.2.4,60.132766896104805,
,,,,Cond,stimuli/Soft/23.jpg,right,,,,,,,,,,,,0,78,78,78,,,,,,,,,,,,,,,,,,,,,,,,,,,,,,,,,,,,,,,,1,,,,,,,,,,,,,,,,,,,,,,,,,1734.7510278070004,None,1734.7510278070004,None,right,1,0.6943109049971099,1734.7510278070004,None,1735.4674494169994,None,,,,,,,,,,,,,,,,,,,,,,,,,,,,,,,,,,11,Male,21,001,2021_Mar_09_2131,cal_abstract,2020.2.4,60.132766896104805,
,,,,Fix2,stimuli/Sad/21.jpg,left,,,,,,,,,,,,0,79,79,79,,,,,,,,,,,,,,,,,,,,,,,,,,,,,,,,,,,,,,,,1,,,,,,,,,,,,,,,,,,,,,,,,,1736.2343329139985,None,1736.2343329139985,None,left,1,0.6687910429973272,1736.2343329139985,None,1736.934356343998,None,,,,,,,,,,,,,,,,,,,,,,,,,,,,,,,,,,11,Male,21,001,2021_Mar_09_2131,cal_abstract,2020.2.4,60.132766896104805,
,,,,Fix1,stimuli/School/39.jpg,right,,,,,,,,,,,,0,80,80,80,,,,,,,,,,,,,,,,,,,,,,,,,,,,,,,,,,,,,,,,1,,,,,,,,,,,,,,,,,,,,,,,,,1737.7010953019999,None,1737.7010953019999,None,right,1,2.8049011650000466,1737.7010953019999,None,1740.5344820389982,None,,,,,,,,,,,,,,,,,,,,,,,,,,,,,,,,,,11,Male,21,001,2021_Mar_09_2131,cal_abstract,2020.2.4,60.132766896104805,
,,,,Cond,stimuli/Soft/37.jpg,left,,,,,,,,,,,,0,81,81,81,,,,,,,,,,,,,,,,,,,,,,,,,,,,,,,,,,,,,,,,1,,,,,,,,,,,,,,,,,,,,,,,,,1741.3013163739997,None,1741.3013163739997,None,left,1,2.953499985000235,1741.3013163739997,None,1744.2847501239994,None,,,,,,,,,,,,,,,,,,,,,,,,,,,,,,,,,,11,Male,21,001,2021_Mar_09_2131,cal_abstract,2020.2.4,60.132766896104805,
,,,,Fix1,stimuli/School/18.jpg,right,,,,,,,,,,,,0,82,82,82,,,,,,,,,,,,,,,,,,,,,,,,,,,,,,,,,,,,,,,,1,,,,,,,,,,,,,,,,,,,,,,,,,1745.051511491998,None,1745.051511491998,None,right,1,1.2339223099988885,1745.051511491998,None,1746.3177822340003,None,,,,,,,,,,,,,,,,,,,,,,,,,,,,,,,,,,11,Male,21,001,2021_Mar_09_2131,cal_abstract,2020.2.4,60.132766896104805,
,,,,Cond,stimuli/Soft/22.jpg,left,,,,,,,,,,,,0,83,83,83,,,,,,,,,,,,,,,,,,,,,,,,,,,,,,,,,,,,,,,,1,,,,,,,,,,,,,,,,,,,,,,,,,1747.0849072290002,None,1747.0849072290002,None,left,1,1.2595053049990383,1747.0849072290002,None,1748.368429252001,None,,,,,,,,,,,,,,,,,,,,,,,,,,,,,,,,,,11,Male,21,001,2021_Mar_09_2131,cal_abstract,2020.2.4,60.132766896104805,
,,,,Cond,stimuli/Soft/4.jpg,right,,,,,,,,,,,,0,84,84,84,,,,,,,,,,,,,,,,,,,,,,,,,,,,,,,,,,,,,,,,1,,,,,,,,,,,,,,,,,,,,,,,,,1749.135227789,None,1749.135227789,None,right,1,2.7370436000019254,1749.135227789,None,1751.9018887739985,None,,,,,,,,,,,,,,,,,,,,,,,,,,,,,,,,,,11,Male,21,001,2021_Mar_09_2131,cal_abstract,2020.2.4,60.132766896104805,
,,,,Fix2,stimuli/Sad/43.jpg,left,,,,,,,,,,,,0,85,85,85,,,,,,,,,,,,,,,,,,,,,,,,,,,,,,,,,,,,,,,,1,,,,,,,,,,,,,,,,,,,,,,,,,1752.668659502,None,1752.668659502,None,left,1,10.23472584800038,1752.668659502,None,1762.9358060689992,None,,,,,,,,,,,,,,,,,,,,,,,,,,,,,,,,,,11,Male,21,001,2021_Mar_09_2131,cal_abstract,2020.2.4,60.132766896104805,
