Text,Block1Type,Block1Stim,Block1Corr,Block2Type,Block2Stim,Block2Corr,Block3Type,Block3Stim,Block3Corr,Instruction_loop.thisRepN,Instruction_loop.thisTrialN,Instruction_loop.thisN,Instruction_loop.thisIndex,Block1_loop.thisRepN,Block1_loop.thisTrialN,Block1_loop.thisN,Block1_loop.thisIndex,Block2_loop.thisRepN,Block2_loop.thisTrialN,Block2_loop.thisN,Block2_loop.thisIndex,Block3_loop.thisRepN,Block3_loop.thisTrialN,Block3_loop.thisN,Block3_loop.thisIndex,welcome_text1.started,welcome_text1.stopped,welcome_text2.started,welcome_text2.stopped,welcome_text3.started,welcome_text3.stopped,welcome_resp.keys,welcome_resp.rt,welcome_resp.started,welcome_resp.stopped,instruct_text1.started,instruct_text1.stopped,instruct_text2.started,instruct_text2.stopped,instruct_resp1.keys,instruct_resp1.rt,instruct_resp1.started,instruct_resp1.stopped,start_text1.started,start_text1.stopped,start_text2.started,start_text2.stopped,start_resp1.keys,start_resp1.rt,start_resp1.started,start_resp1.stopped,image1.started,image1.stopped,text1.started,text1.stopped,key_resp1.keys,key_resp1.corr,key_resp1.rt,key_resp1.started,key_resp1.stopped,trialCorrect,feedback_text1.started,feedback_text1.stopped,break_text1.started,break_text1.stopped,break_resp1.keys,break_resp1.rt,break_resp1.started,break_resp1.stopped,intructRemind_text1.started,intructRemind_text1.stopped,instructRemind_text2.started,instructRemind_text2.stopped,instructRemind_resp1.keys,instructRemind_resp1.rt,instructRemind_resp1.started,instructRemind_resp1.stopped,start_text3.started,start_text3.stopped,start_text4.started,start_text4.stopped,start_resp2.keys,start_resp2.rt,start_resp2.started,start_resp2.stopped,image2.started,image2.stopped,text2.started,text2.stopped,key_resp2.keys,key_resp2.corr,key_resp2.rt,key_resp2.started,key_resp2.stopped,feedback_text2.started,feedback_text2.stopped,break_text2.started,break_text2.stopped,break_resp2.keys,break_resp2.rt,break_resp2.started,break_resp2.stopped,start_text5.started,start_text5.stopped,start_text6.started,start_text6.stopped,start_resp3.keys,start_resp3.rt,start_resp3.started,start_resp3.stopped,image3.started,image3.stopped,text3.started,text3.stopped,key_resp3.keys,key_resp3.corr,key_resp3.rt,key_resp3.started,key_resp3.stopped,feedback_text3.started,feedback_text3.stopped,end_text1.started,end_text1.stopped,end_text2.started,end_text2.stopped,end_resp.keys,end_resp.rt,end_resp.started,end_resp.stopped,participant,sex,age,session,date,expName,psychopyVersion,frameRate,
,,,,,,,,,,,,,,,,,,,,,,,,,,25.815570896997087,None,25.815570896997087,None,25.815570896997087,None,return,27.636358113002643,25.815570896997087,None,,,,,,,,,,,,,,,,,,,,,,,,,,,,,,,,,,,,,,,,,,,,,,,,,,,,,,,,,,,,,,,,,,,,,,,,,,,,,,,,,,,,,,,,,,,,,,,00,Female,20,001,2021_Mar_09_2034,cal_abstract,2020.2.4,59.976865842499606,
"You will be presented with a series of images. It is your job to learn, through trial and error, whether the “Left” or “Right” arrow key should be pressed for each image.",,,,,,,,,,0,0,0,0,,,,,,,,,,,,,,,,,,,,,,,53.51755336499991,None,53.51755336499991,None,return,6.019360289999895,53.51755336499991,None,,,,,,,,,,,,,,,,,,,,,,,,,,,,,,,,,,,,,,,,,,,,,,,,,,,,,,,,,,,,,,,,,,,,,,,,,,,,,,,,,,,,,,,00,Female,20,001,2021_Mar_09_2034,cal_abstract,2020.2.4,59.976865842499606,
"For some images you should always press “Left”, and for others you should always press “Right” arrow key.",,,,,,,,,,0,1,1,1,,,,,,,,,,,,,,,,,,,,,,,59.58483080499718,None,59.58483080499718,None,return,6.04049347000182,59.58483080499718,None,,,,,,,,,,,,,,,,,,,,,,,,,,,,,,,,,,,,,,,,,,,,,,,,,,,,,,,,,,,,,,,,,,,,,,,,,,,,,,,,,,,,,,,00,Female,20,001,2021_Mar_09_2034,cal_abstract,2020.2.4,59.976865842499606,
Some images are special: the correct response is the opposite of the preceding correct response.,,,,,,,,,,0,2,2,2,,,,,,,,,,,,,,,,,,,,,,,65.66844761500033,None,65.66844761500033,None,return,6.520290514999942,65.66844761500033,None,,,,,,,,,,,,,,,,,,,,,,,,,,,,,,,,,,,,,,,,,,,,,,,,,,,,,,,,,,,,,,,,,,,,,,,,,,,,,,,,,,,,,,,00,Female,20,001,2021_Mar_09_2034,cal_abstract,2020.2.4,59.976865842499606,
"That is, if the previous correct answer was “Left” then the correct response would now be “Right”.",,,,,,,,,,0,3,3,3,,,,,,,,,,,,,,,,,,,,,,,72.2356453020002,None,72.2356453020002,None,return,4.427944030001527,72.2356453020002,None,,,,,,,,,,,,,,,,,,,,,,,,,,,,,,,,,,,,,,,,,,,,,,,,,,,,,,,,,,,,,,,,,,,,,,,,,,,,,,,,,,,,,,,00,Female,20,001,2021_Mar_09_2034,cal_abstract,2020.2.4,59.976865842499606,
"After each response, you will be told whether you got the item correct or incorrect.",,,,,,,,,,0,4,4,4,,,,,,,,,,,,,,,,,,,,,,,76.68575769999734,None,76.68575769999734,None,return,2.751946242999111,76.68575769999734,None,,,,,,,,,,,,,,,,,,,,,,,,,,,,,,,,,,,,,,,,,,,,,,,,,,,,,,,,,,,,,,,,,,,,,,,,,,,,,,,,,,,,,,,00,Female,20,001,2021_Mar_09_2034,cal_abstract,2020.2.4,59.976865842499606,
"You can take as long as you like on each image, but the task will not continue until you press the “Left” or “Right” arrow key.",,,,,,,,,,0,5,5,5,,,,,,,,,,,,,,,,,,,,,,,79.48605521999707,None,79.48605521999707,None,return,2.958622379999724,79.48605521999707,None,,,,,,,,,,,,,,,,,,,,,,,,,,,,,,,,,,,,,,,,,,,,,,,,,,,,,,,,,,,,,,,,,,,,,,,,,,,,,,,,,,,,,,,00,Female,20,001,2021_Mar_09_2034,cal_abstract,2020.2.4,59.976865842499606,
"The experiment will have three blocks, each block will take approximately 10 minutes to complete.",,,,,,,,,,0,6,6,6,,,,,,,,,,,,,,,,,,,,,,,82.48641296499773,None,82.48641296499773,None,return,2.511079702999268,82.48641296499773,None,,,,,,,,,,,,,,,,,,,,,,,,,,,,,,,,,,,,,,,,,,,,,,,,,,,,,,,,,,,,,,,,,,,,,,,,,,,,,,,,,,,,,,,00,Female,20,001,2021_Mar_09_2034,cal_abstract,2020.2.4,59.976865842499606,
,,,,,,,,,,,,,,,,,,,,,,,,,,,,,,,,,,,,,,,,,,,,85.01914623199991,None,85.01914623199991,None,s,20.874796686999616,85.01914623199991,None,,,,,,,,,,,,,,,,,,,,,,,,,,,,,,,,,,,,,,,,,,,,,,,,,,,,,,,,,,,,,,,,,,,,,,,,,,,,,,,00,Female,20,001,2021_Mar_09_2034,cal_abstract,2020.2.4,59.976865842499606,
,Fix2,stimuli/School/30.jpg,right,,,,,,,,,,,0,0,0,0,,,,,,,,,,,,,,,,,,,,,,,,,,,,,,,,,,,106.1203702189996,None,106.1203702189996,None,left,0,2.9172486169991316,106.1203702189996,None,0,109.07139285700032,None,,,,,,,,,,,,,,,,,,,,,,,,,,,,,,,,,,,,,,,,,,,,,,,,,,,,,,,,,,,,,,,,,,,00,Female,20,001,2021_Mar_09_2034,cal_abstract,2020.2.4,59.976865842499606,
,Fix2,stimuli/School/23.jpg,right,,,,,,,,,,,0,1,1,1,,,,,,,,,,,,,,,,,,,,,,,,,,,,,,,,,,,109.83957593199739,None,109.83957593199739,None,right,1,1.6046978999984276,109.83957593199739,None,1,111.48822700699748,None,,,,,,,,,,,,,,,,,,,,,,,,,,,,,,,,,,,,,,,,,,,,,,,,,,,,,,,,,,,,,,,,,,,00,Female,20,001,2021_Mar_09_2034,cal_abstract,2020.2.4,59.976865842499606,
,Fix1,stimuli/Soft/43.jpg,left,,,,,,,,,,,0,2,2,2,,,,,,,,,,,,,,,,,,,,,,,,,,,,,,,,,,,112.25515495699801,None,112.25515495699801,None,left,1,7.817029703997832,112.25515495699801,None,1,120.10555564999959,None,,,,,,,,,,,,,,,,,,,,,,,,,,,,,,,,,,,,,,,,,,,,,,,,,,,,,,,,,,,,,,,,,,,00,Female,20,001,2021_Mar_09_2034,cal_abstract,2020.2.4,59.976865842499606,
,Fix2,stimuli/School/40.jpg,right,,,,,,,,,,,0,3,3,3,,,,,,,,,,,,,,,,,,,,,,,,,,,,,,,,,,,120.87235295199935,None,120.87235295199935,None,right,1,0.936381405001157,120.87235295199935,None,1,121.83836502199847,None,,,,,,,,,,,,,,,,,,,,,,,,,,,,,,,,,,,,,,,,,,,,,,,,,,,,,,,,,,,,,,,,,,,00,Female,20,001,2021_Mar_09_2034,cal_abstract,2020.2.4,59.976865842499606,
,Fix2,stimuli/School/24.jpg,right,,,,,,,,,,,0,4,4,4,,,,,,,,,,,,,,,,,,,,,,,,,,,,,,,,,,,122.60500194499764,None,122.60500194499764,None,right,1,0.7215678130014567,122.60500194499764,None,1,123.35558284999934,None,,,,,,,,,,,,,,,,,,,,,,,,,,,,,,,,,,,,,,,,,,,,,,,,,,,,,,,,,,,,,,,,,,,00,Female,20,001,2021_Mar_09_2034,cal_abstract,2020.2.4,59.976865842499606,
,Cond,stimuli/Small/21.jpg,left,,,,,,,,,,,0,5,5,5,,,,,,,,,,,,,,,,,,,,,,,,,,,,,,,,,,,124.12241622500005,None,124.12241622500005,None,left,1,2.8319847300008405,124.12241622500005,None,1,126.97264184999949,None,,,,,,,,,,,,,,,,,,,,,,,,,,,,,,,,,,,,,,,,,,,,,,,,,,,,,,,,,,,,,,,,,,,00,Female,20,001,2021_Mar_09_2034,cal_abstract,2020.2.4,59.976865842499606,
,Fix2,stimuli/School/58.jpg,right,,,,,,,,,,,0,6,6,6,,,,,,,,,,,,,,,,,,,,,,,,,,,,,,,,,,,127.7413530269987,None,127.7413530269987,None,right,1,0.8631252199993469,127.7413530269987,None,1,128.62271896200036,None,,,,,,,,,,,,,,,,,,,,,,,,,,,,,,,,,,,,,,,,,,,,,,,,,,,,,,,,,,,,,,,,,,,00,Female,20,001,2021_Mar_09_2034,cal_abstract,2020.2.4,59.976865842499606,
,Fix2,stimuli/School/42.jpg,right,,,,,,,,,,,0,7,7,7,,,,,,,,,,,,,,,,,,,,,,,,,,,,,,,,,,,129.38953104199754,None,129.38953104199754,None,right,1,0.8116088620008668,129.38953104199754,None,1,130.22275047499716,None,,,,,,,,,,,,,,,,,,,,,,,,,,,,,,,,,,,,,,,,,,,,,,,,,,,,,,,,,,,,,,,,,,,00,Female,20,001,2021_Mar_09_2034,cal_abstract,2020.2.4,59.976865842499606,
,Cond,stimuli/Small/41.jpg,left,,,,,,,,,,,0,8,8,8,,,,,,,,,,,,,,,,,,,,,,,,,,,,,,,,,,,130.9897586320003,None,130.9897586320003,None,left,1,1.0082418819984014,130.9897586320003,None,1,132.02288090199727,None,,,,,,,,,,,,,,,,,,,,,,,,,,,,,,,,,,,,,,,,,,,,,,,,,,,,,,,,,,,,,,,,,,,00,Female,20,001,2021_Mar_09_2034,cal_abstract,2020.2.4,59.976865842499606,
,Fix2,stimuli/School/43.jpg,right,,,,,,,,,,,0,9,9,9,,,,,,,,,,,,,,,,,,,,,,,,,,,,,,,,,,,132.78924237200044,None,132.78924237200044,None,right,1,1.2906092100020032,132.78924237200044,None,1,134.10658922199946,None,,,,,,,,,,,,,,,,,,,,,,,,,,,,,,,,,,,,,,,,,,,,,,,,,,,,,,,,,,,,,,,,,,,00,Female,20,001,2021_Mar_09_2034,cal_abstract,2020.2.4,59.976865842499606,
,Fix2,stimuli/School/47.jpg,right,,,,,,,,,,,0,10,10,10,,,,,,,,,,,,,,,,,,,,,,,,,,,,,,,,,,,134.87235128499742,None,134.87235128499742,None,right,1,1.7214221819995146,134.87235128499742,None,1,136.62313985699802,None,,,,,,,,,,,,,,,,,,,,,,,,,,,,,,,,,,,,,,,,,,,,,,,,,,,,,,,,,,,,,,,,,,,00,Female,20,001,2021_Mar_09_2034,cal_abstract,2020.2.4,59.976865842499606,
,Cond,stimuli/Small/51.jpg,left,,,,,,,,,,,0,11,11,11,,,,,,,,,,,,,,,,,,,,,,,,,,,,,,,,,,,137.39009867499772,None,137.39009867499772,None,left,1,0.8785170430019207,137.39009867499772,None,1,138.29005330200016,None,,,,,,,,,,,,,,,,,,,,,,,,,,,,,,,,,,,,,,,,,,,,,,,,,,,,,,,,,,,,,,,,,,,00,Female,20,001,2021_Mar_09_2034,cal_abstract,2020.2.4,59.976865842499606,
,Cond,stimuli/Small/55.jpg,right,,,,,,,,,,,0,12,12,12,,,,,,,,,,,,,,,,,,,,,,,,,,,,,,,,,,,139.0570231419988,None,139.0570231419988,None,right,1,0.7534961700002896,139.0570231419988,None,1,139.8394299669999,None,,,,,,,,,,,,,,,,,,,,,,,,,,,,,,,,,,,,,,,,,,,,,,,,,,,,,,,,,,,,,,,,,,,00,Female,20,001,2021_Mar_09_2034,cal_abstract,2020.2.4,59.976865842499606,
,Fix2,stimuli/School/5.jpg,right,,,,,,,,,,,0,13,13,13,,,,,,,,,,,,,,,,,,,,,,,,,,,,,,,,,,,140.60672737999994,None,140.60672737999994,None,right,1,0.8906649780001317,140.60672737999994,None,1,141.52365410699713,None,,,,,,,,,,,,,,,,,,,,,,,,,,,,,,,,,,,,,,,,,,,,,,,,,,,,,,,,,,,,,,,,,,,00,Female,20,001,2021_Mar_09_2034,cal_abstract,2020.2.4,59.976865842499606,
,Fix2,stimuli/School/55.jpg,right,,,,,,,,,,,0,14,14,14,,,,,,,,,,,,,,,,,,,,,,,,,,,,,,,,,,,142.29026750699995,None,142.29026750699995,None,right,1,0.9483010299991292,142.29026750699995,None,1,143.25711194999894,None,,,,,,,,,,,,,,,,,,,,,,,,,,,,,,,,,,,,,,,,,,,,,,,,,,,,,,,,,,,,,,,,,,,00,Female,20,001,2021_Mar_09_2034,cal_abstract,2020.2.4,59.976865842499606,
,Fix2,stimuli/School/57.jpg,right,,,,,,,,,,,0,15,15,15,,,,,,,,,,,,,,,,,,,,,,,,,,,,,,,,,,,144.02413454499765,None,144.02413454499765,None,right,1,3.6384633400011808,144.02413454499765,None,1,147.69004261199734,None,,,,,,,,,,,,,,,,,,,,,,,,,,,,,,,,,,,,,,,,,,,,,,,,,,,,,,,,,,,,,,,,,,,00,Female,20,001,2021_Mar_09_2034,cal_abstract,2020.2.4,59.976865842499606,
,Cond,stimuli/Small/47.jpg,left,,,,,,,,,,,0,16,16,16,,,,,,,,,,,,,,,,,,,,,,,,,,,,,,,,,,,148.45751129199925,None,148.45751129199925,None,left,1,1.1683962629977032,148.45751129199925,None,1,149.65757375199973,None,,,,,,,,,,,,,,,,,,,,,,,,,,,,,,,,,,,,,,,,,,,,,,,,,,,,,,,,,,,,,,,,,,,00,Female,20,001,2021_Mar_09_2034,cal_abstract,2020.2.4,59.976865842499606,
,Fix2,stimuli/School/17.jpg,right,,,,,,,,,,,0,17,17,17,,,,,,,,,,,,,,,,,,,,,,,,,,,,,,,,,,,150.42446384999857,None,150.42446384999857,None,right,1,2.1874244999999064,150.42446384999857,None,1,152.64076722499885,None,,,,,,,,,,,,,,,,,,,,,,,,,,,,,,,,,,,,,,,,,,,,,,,,,,,,,,,,,,,,,,,,,,,00,Female,20,001,2021_Mar_09_2034,cal_abstract,2020.2.4,59.976865842499606,
,Fix1,stimuli/Soft/35.jpg,left,,,,,,,,,,,0,18,18,18,,,,,,,,,,,,,,,,,,,,,,,,,,,,,,,,,,,153.41020943699914,None,153.41020943699914,None,left,1,0.8225553000011132,153.41020943699914,None,1,154.25777662999826,None,,,,,,,,,,,,,,,,,,,,,,,,,,,,,,,,,,,,,,,,,,,,,,,,,,,,,,,,,,,,,,,,,,,00,Female,20,001,2021_Mar_09_2034,cal_abstract,2020.2.4,59.976865842499606,
,Fix1,stimuli/Soft/48.jpg,left,,,,,,,,,,,0,19,19,19,,,,,,,,,,,,,,,,,,,,,,,,,,,,,,,,,,,155.02433736999956,None,155.02433736999956,None,right,0,1.8112795550005103,155.02433736999956,None,0,156.85772983999777,None,,,,,,,,,,,,,,,,,,,,,,,,,,,,,,,,,,,,,,,,,,,,,,,,,,,,,,,,,,,,,,,,,,,00,Female,20,001,2021_Mar_09_2034,cal_abstract,2020.2.4,59.976865842499606,
,Fix2,stimuli/School/0.jpg,right,,,,,,,,,,,0,20,20,20,,,,,,,,,,,,,,,,,,,,,,,,,,,,,,,,,,,157.64160476699908,None,157.64160476699908,None,right,1,0.8199866199975077,157.64160476699908,None,1,158.4903955209993,None,,,,,,,,,,,,,,,,,,,,,,,,,,,,,,,,,,,,,,,,,,,,,,,,,,,,,,,,,,,,,,,,,,,00,Female,20,001,2021_Mar_09_2034,cal_abstract,2020.2.4,59.976865842499606,
,Fix1,stimuli/Soft/32.jpg,left,,,,,,,,,,,0,21,21,21,,,,,,,,,,,,,,,,,,,,,,,,,,,,,,,,,,,159.27388690099906,None,159.27388690099906,None,left,1,1.425439277998521,159.27388690099906,None,1,160.72493439499885,None,,,,,,,,,,,,,,,,,,,,,,,,,,,,,,,,,,,,,,,,,,,,,,,,,,,,,,,,,,,,,,,,,,,00,Female,20,001,2021_Mar_09_2034,cal_abstract,2020.2.4,59.976865842499606,
,Cond,stimuli/Small/18.jpg,right,,,,,,,,,,,0,22,22,22,,,,,,,,,,,,,,,,,,,,,,,,,,,,,,,,,,,161.49131442699945,None,161.49131442699945,None,left,0,0.9659425429999828,161.49131442699945,None,0,162.4751069869999,None,,,,,,,,,,,,,,,,,,,,,,,,,,,,,,,,,,,,,,,,,,,,,,,,,,,,,,,,,,,,,,,,,,,00,Female,20,001,2021_Mar_09_2034,cal_abstract,2020.2.4,59.976865842499606,
,Fix2,stimuli/School/26.jpg,right,,,,,,,,,,,0,23,23,23,,,,,,,,,,,,,,,,,,,,,,,,,,,,,,,,,,,163.24193424199984,None,163.24193424199984,None,right,1,32.919863995000924,163.24193424199984,None,1,196.19376031499996,None,,,,,,,,,,,,,,,,,,,,,,,,,,,,,,,,,,,,,,,,,,,,,,,,,,,,,,,,,,,,,,,,,,,00,Female,20,001,2021_Mar_09_2034,cal_abstract,2020.2.4,59.976865842499606,
,Fix1,stimuli/Soft/49.jpg,left,,,,,,,,,,,0,24,24,24,,,,,,,,,,,,,,,,,,,,,,,,,,,,,,,,,,,196.96097750499757,None,196.96097750499757,None,left,1,4.928755152999656,196.96097750499757,None,1,201.91107307499988,None,,,,,,,,,,,,,,,,,,,,,,,,,,,,,,,,,,,,,,,,,,,,,,,,,,,,,,,,,,,,,,,,,,,00,Female,20,001,2021_Mar_09_2034,cal_abstract,2020.2.4,59.976865842499606,
,Fix2,stimuli/School/13.jpg,right,,,,,,,,,,,0,25,25,25,,,,,,,,,,,,,,,,,,,,,,,,,,,,,,,,,,,202.67784881499756,None,202.67784881499756,None,right,1,0.7425768899993272,202.67784881499756,None,1,203.4444690499986,None,,,,,,,,,,,,,,,,,,,,,,,,,,,,,,,,,,,,,,,,,,,,,,,,,,,,,,,,,,,,,,,,,,,00,Female,20,001,2021_Mar_09_2034,cal_abstract,2020.2.4,59.976865842499606,
,Fix1,stimuli/Soft/54.jpg,left,,,,,,,,,,,0,26,26,26,,,,,,,,,,,,,,,,,,,,,,,,,,,,,,,,,,,204.21107588499945,None,204.21107588499945,None,left,1,1.610027833001368,204.21107588499945,None,1,205.8444365869982,None,,,,,,,,,,,,,,,,,,,,,,,,,,,,,,,,,,,,,,,,,,,,,,,,,,,,,,,,,,,,,,,,,,,00,Female,20,001,2021_Mar_09_2034,cal_abstract,2020.2.4,59.976865842499606,
,Cond,stimuli/Small/13.jpg,right,,,,,,,,,,,0,27,27,27,,,,,,,,,,,,,,,,,,,,,,,,,,,,,,,,,,,206.61168738199922,None,206.61168738199922,None,left,0,1.6463449800030503,206.61168738199922,None,0,208.2781003050004,None,,,,,,,,,,,,,,,,,,,,,,,,,,,,,,,,,,,,,,,,,,,,,,,,,,,,,,,,,,,,,,,,,,,00,Female,20,001,2021_Mar_09_2034,cal_abstract,2020.2.4,59.976865842499606,
,Fix2,stimuli/School/11.jpg,right,,,,,,,,,,,0,28,28,28,,,,,,,,,,,,,,,,,,,,,,,,,,,,,,,,,,,209.04481930700058,None,209.04481930700058,None,right,1,4.1140696269976615,209.04481930700058,None,1,213.17843745999926,None,,,,,,,,,,,,,,,,,,,,,,,,,,,,,,,,,,,,,,,,,,,,,,,,,,,,,,,,,,,,,,,,,,,00,Female,20,001,2021_Mar_09_2034,cal_abstract,2020.2.4,59.976865842499606,
,Fix1,stimuli/Soft/4.jpg,left,,,,,,,,,,,0,29,29,29,,,,,,,,,,,,,,,,,,,,,,,,,,,,,,,,,,,213.9456249169998,None,213.9456249169998,None,left,1,1.57138634200237,213.9456249169998,None,1,215.54543456199826,None,,,,,,,,,,,,,,,,,,,,,,,,,,,,,,,,,,,,,,,,,,,,,,,,,,,,,,,,,,,,,,,,,,,00,Female,20,001,2021_Mar_09_2034,cal_abstract,2020.2.4,59.976865842499606,
,Fix2,stimuli/School/8.jpg,right,,,,,,,,,,,0,30,30,30,,,,,,,,,,,,,,,,,,,,,,,,,,,,,,,,,,,216.3120655069979,None,216.3120655069979,None,right,1,17.45400244800112,216.3120655069979,None,1,233.79655225500028,None,,,,,,,,,,,,,,,,,,,,,,,,,,,,,,,,,,,,,,,,,,,,,,,,,,,,,,,,,,,,,,,,,,,00,Female,20,001,2021_Mar_09_2034,cal_abstract,2020.2.4,59.976865842499606,
,Cond,stimuli/Small/28.jpg,left,,,,,,,,,,,0,31,31,31,,,,,,,,,,,,,,,,,,,,,,,,,,,,,,,,,,,234.563619741999,None,234.563619741999,None,left,1,2.8659708550003415,234.563619741999,None,1,237.4459713269971,None,,,,,,,,,,,,,,,,,,,,,,,,,,,,,,,,,,,,,,,,,,,,,,,,,,,,,,,,,,,,,,,,,,,00,Female,20,001,2021_Mar_09_2034,cal_abstract,2020.2.4,59.976865842499606,
,Cond,stimuli/Small/5.jpg,right,,,,,,,,,,,0,32,32,32,,,,,,,,,,,,,,,,,,,,,,,,,,,,,,,,,,,238.21324639699742,None,238.21324639699742,None,right,1,2.667313837999245,238.21324639699742,None,1,240.91375138199874,None,,,,,,,,,,,,,,,,,,,,,,,,,,,,,,,,,,,,,,,,,,,,,,,,,,,,,,,,,,,,,,,,,,,00,Female,20,001,2021_Mar_09_2034,cal_abstract,2020.2.4,59.976865842499606,
,Fix1,stimuli/Soft/17.jpg,left,,,,,,,,,,,0,33,33,33,,,,,,,,,,,,,,,,,,,,,,,,,,,,,,,,,,,241.68072163000033,None,241.68072163000033,None,left,1,1.7204130400023132,241.68072163000033,None,1,243.43068492199745,None,,,,,,,,,,,,,,,,,,,,,,,,,,,,,,,,,,,,,,,,,,,,,,,,,,,,,,,,,,,,,,,,,,,00,Female,20,001,2021_Mar_09_2034,cal_abstract,2020.2.4,59.976865842499606,
,Cond,stimuli/Small/38.jpg,right,,,,,,,,,,,0,34,34,34,,,,,,,,,,,,,,,,,,,,,,,,,,,,,,,,,,,244.21429977499793,None,244.21429977499793,None,left,0,2.1376512669994554,244.21429977499793,None,0,246.38039852499787,None,,,,,,,,,,,,,,,,,,,,,,,,,,,,,,,,,,,,,,,,,,,,,,,,,,,,,,,,,,,,,,,,,,,00,Female,20,001,2021_Mar_09_2034,cal_abstract,2020.2.4,59.976865842499606,
,Fix2,stimuli/School/1.jpg,right,,,,,,,,,,,0,35,35,35,,,,,,,,,,,,,,,,,,,,,,,,,,,,,,,,,,,247.14779803700003,None,247.14779803700003,None,right,1,0.9090397469990421,247.14779803700003,None,1,248.0809060399988,None,,,,,,,,,,,,,,,,,,,,,,,,,,,,,,,,,,,,,,,,,,,,,,,,,,,,,,,,,,,,,,,,,,,00,Female,20,001,2021_Mar_09_2034,cal_abstract,2020.2.4,59.976865842499606,
,Cond,stimuli/Small/49.jpg,left,,,,,,,,,,,0,36,36,36,,,,,,,,,,,,,,,,,,,,,,,,,,,,,,,,,,,248.84746634999829,None,248.84746634999829,None,left,1,3.159238115000335,248.84746634999829,None,1,252.03120818499883,None,,,,,,,,,,,,,,,,,,,,,,,,,,,,,,,,,,,,,,,,,,,,,,,,,,,,,,,,,,,,,,,,,,,00,Female,20,001,2021_Mar_09_2034,cal_abstract,2020.2.4,59.976865842499606,
,Cond,stimuli/Small/37.jpg,right,,,,,,,,,,,0,37,37,37,,,,,,,,,,,,,,,,,,,,,,,,,,,,,,,,,,,252.79835023699707,None,252.79835023699707,None,right,1,1.1280689200029883,252.79835023699707,None,1,253.94796829199913,None,,,,,,,,,,,,,,,,,,,,,,,,,,,,,,,,,,,,,,,,,,,,,,,,,,,,,,,,,,,,,,,,,,,00,Female,20,001,2021_Mar_09_2034,cal_abstract,2020.2.4,59.976865842499606,
,Fix1,stimuli/Soft/6.jpg,left,,,,,,,,,,,0,38,38,38,,,,,,,,,,,,,,,,,,,,,,,,,,,,,,,,,,,254.71494233699923,None,254.71494233699923,None,left,1,1.0132540980011981,254.71494233699923,None,1,255.7480456150006,None,,,,,,,,,,,,,,,,,,,,,,,,,,,,,,,,,,,,,,,,,,,,,,,,,,,,,,,,,,,,,,,,,,,00,Female,20,001,2021_Mar_09_2034,cal_abstract,2020.2.4,59.976865842499606,
,Cond,stimuli/Small/0.jpg,right,,,,,,,,,,,0,39,39,39,,,,,,,,,,,,,,,,,,,,,,,,,,,,,,,,,,,256.51440960999753,None,256.51440960999753,None,right,1,1.219749967000098,256.51440960999753,None,1,257.76464440699783,None,,,,,,,,,,,,,,,,,,,,,,,,,,,,,,,,,,,,,,,,,,,,,,,,,,,,,,,,,,,,,,,,,,,00,Female,20,001,2021_Mar_09_2034,cal_abstract,2020.2.4,59.976865842499606,
,Fix1,stimuli/Soft/37.jpg,left,,,,,,,,,,,0,40,40,40,,,,,,,,,,,,,,,,,,,,,,,,,,,,,,,,,,,258.5317183970001,None,258.5317183970001,None,left,1,4.059504680000828,258.5317183970001,None,1,262.6148199499985,None,,,,,,,,,,,,,,,,,,,,,,,,,,,,,,,,,,,,,,,,,,,,,,,,,,,,,,,,,,,,,,,,,,,00,Female,20,001,2021_Mar_09_2034,cal_abstract,2020.2.4,59.976865842499606,
,Fix2,stimuli/School/33.jpg,right,,,,,,,,,,,0,41,41,41,,,,,,,,,,,,,,,,,,,,,,,,,,,,,,,,,,,263.39892577999854,None,263.39892577999854,None,right,1,1.837060850000853,263.39892577999854,None,1,265.2655721569972,None,,,,,,,,,,,,,,,,,,,,,,,,,,,,,,,,,,,,,,,,,,,,,,,,,,,,,,,,,,,,,,,,,,,00,Female,20,001,2021_Mar_09_2034,cal_abstract,2020.2.4,59.976865842499606,
,Fix2,stimuli/School/20.jpg,right,,,,,,,,,,,0,42,42,42,,,,,,,,,,,,,,,,,,,,,,,,,,,,,,,,,,,266.0322978749973,None,266.0322978749973,None,right,1,0.7424889050016645,266.0322978749973,None,1,266.7990037950003,None,,,,,,,,,,,,,,,,,,,,,,,,,,,,,,,,,,,,,,,,,,,,,,,,,,,,,,,,,,,,,,,,,,,00,Female,20,001,2021_Mar_09_2034,cal_abstract,2020.2.4,59.976865842499606,
,Fix1,stimuli/Soft/20.JPG,left,,,,,,,,,,,0,43,43,43,,,,,,,,,,,,,,,,,,,,,,,,,,,,,,,,,,,267.5658491899994,None,267.5658491899994,None,left,1,11.164310665000812,267.5658491899994,None,1,278.7497184349995,None,,,,,,,,,,,,,,,,,,,,,,,,,,,,,,,,,,,,,,,,,,,,,,,,,,,,,,,,,,,,,,,,,,,00,Female,20,001,2021_Mar_09_2034,cal_abstract,2020.2.4,59.976865842499606,
,Fix2,stimuli/School/18.jpg,right,,,,,,,,,,,0,44,44,44,,,,,,,,,,,,,,,,,,,,,,,,,,,,,,,,,,,279.51681174499754,None,279.51681174499754,None,right,1,3.8288201930008654,279.51681174499754,None,1,283.3666964570002,None,,,,,,,,,,,,,,,,,,,,,,,,,,,,,,,,,,,,,,,,,,,,,,,,,,,,,,,,,,,,,,,,,,,00,Female,20,001,2021_Mar_09_2034,cal_abstract,2020.2.4,59.976865842499606,
,Fix1,stimuli/Soft/47.jpg,left,,,,,,,,,,,0,45,45,45,,,,,,,,,,,,,,,,,,,,,,,,,,,,,,,,,,,284.1337913369971,None,284.1337913369971,None,left,1,1.52059906499926,284.1337913369971,None,1,285.6836417199993,None,,,,,,,,,,,,,,,,,,,,,,,,,,,,,,,,,,,,,,,,,,,,,,,,,,,,,,,,,,,,,,,,,,,00,Female,20,001,2021_Mar_09_2034,cal_abstract,2020.2.4,59.976865842499606,
,Cond,stimuli/Small/53.jpg,right,,,,,,,,,,,0,46,46,46,,,,,,,,,,,,,,,,,,,,,,,,,,,,,,,,,,,286.4523233869986,None,286.4523233869986,None,right,1,1.8557822149996355,286.4523233869986,None,1,288.33334899499823,None,,,,,,,,,,,,,,,,,,,,,,,,,,,,,,,,,,,,,,,,,,,,,,,,,,,,,,,,,,,,,,,,,,,00,Female,20,001,2021_Mar_09_2034,cal_abstract,2020.2.4,59.976865842499606,
,Cond,stimuli/Small/31.JPG,left,,,,,,,,,,,0,47,47,47,,,,,,,,,,,,,,,,,,,,,,,,,,,,,,,,,,,289.100627672,None,289.100627672,None,right,0,3.050608530000318,289.100627672,None,0,292.1835264069996,None,,,,,,,,,,,,,,,,,,,,,,,,,,,,,,,,,,,,,,,,,,,,,,,,,,,,,,,,,,,,,,,,,,,00,Female,20,001,2021_Mar_09_2034,cal_abstract,2020.2.4,59.976865842499606,
,Fix1,stimuli/Soft/2.jpg,left,,,,,,,,,,,0,48,48,48,,,,,,,,,,,,,,,,,,,,,,,,,,,,,,,,,,,292.9505084299999,None,292.9505084299999,None,left,1,2.407881740000448,292.9505084299999,None,1,295.3842969920006,None,,,,,,,,,,,,,,,,,,,,,,,,,,,,,,,,,,,,,,,,,,,,,,,,,,,,,,,,,,,,,,,,,,,00,Female,20,001,2021_Mar_09_2034,cal_abstract,2020.2.4,59.976865842499606,
,Fix2,stimuli/School/12.jpg,right,,,,,,,,,,,0,49,49,49,,,,,,,,,,,,,,,,,,,,,,,,,,,,,,,,,,,296.1511746299984,None,296.1511746299984,None,right,1,10.534497017000831,296.1511746299984,None,1,306.71832660499786,None,,,,,,,,,,,,,,,,,,,,,,,,,,,,,,,,,,,,,,,,,,,,,,,,,,,,,,,,,,,,,,,,,,,00,Female,20,001,2021_Mar_09_2034,cal_abstract,2020.2.4,59.976865842499606,
,Fix1,stimuli/Soft/52.jpg,left,,,,,,,,,,,0,50,50,50,,,,,,,,,,,,,,,,,,,,,,,,,,,,,,,,,,,307.4853727749978,None,307.4853727749978,None,right,0,0.07588267200117116,307.4853727749978,None,0,307.5848813449993,None,,,,,,,,,,,,,,,,,,,,,,,,,,,,,,,,,,,,,,,,,,,,,,,,,,,,,,,,,,,,,,,,,,,00,Female,20,001,2021_Mar_09_2034,cal_abstract,2020.2.4,59.976865842499606,
,Cond,stimuli/Small/9.jpg,right,,,,,,,,,,,0,51,51,51,,,,,,,,,,,,,,,,,,,,,,,,,,,,,,,,,,,308.35102087999985,None,308.35102087999985,None,right,1,5.969922137999674,308.35102087999985,None,1,314.3521045419984,None,,,,,,,,,,,,,,,,,,,,,,,,,,,,,,,,,,,,,,,,,,,,,,,,,,,,,,,,,,,,,,,,,,,00,Female,20,001,2021_Mar_09_2034,cal_abstract,2020.2.4,59.976865842499606,
,Cond,stimuli/Small/12.jpg,left,,,,,,,,,,,0,52,52,52,,,,,,,,,,,,,,,,,,,,,,,,,,,,,,,,,,,315.11903278200043,None,315.11903278200043,None,left,1,2.9341964070008544,315.11903278200043,None,1,318.0855273699999,None,,,,,,,,,,,,,,,,,,,,,,,,,,,,,,,,,,,,,,,,,,,,,,,,,,,,,,,,,,,,,,,,,,,00,Female,20,001,2021_Mar_09_2034,cal_abstract,2020.2.4,59.976865842499606,
,Fix1,stimuli/Soft/13.jpg,left,,,,,,,,,,,0,53,53,53,,,,,,,,,,,,,,,,,,,,,,,,,,,,,,,,,,,318.8695166119978,None,318.8695166119978,None,left,1,2.347679295002308,318.8695166119978,None,1,321.23590926999896,None,,,,,,,,,,,,,,,,,,,,,,,,,,,,,,,,,,,,,,,,,,,,,,,,,,,,,,,,,,,,,,,,,,,00,Female,20,001,2021_Mar_09_2034,cal_abstract,2020.2.4,59.976865842499606,
,Fix1,stimuli/Soft/56.jpg,left,,,,,,,,,,,0,54,54,54,,,,,,,,,,,,,,,,,,,,,,,,,,,,,,,,,,,322.0029522449986,None,322.0029522449986,None,left,1,2.88257153199811,322.0029522449986,None,1,324.9029647269999,None,,,,,,,,,,,,,,,,,,,,,,,,,,,,,,,,,,,,,,,,,,,,,,,,,,,,,,,,,,,,,,,,,,,00,Female,20,001,2021_Mar_09_2034,cal_abstract,2020.2.4,59.976865842499606,
,Fix2,stimuli/School/28.jpg,right,,,,,,,,,,,0,55,55,55,,,,,,,,,,,,,,,,,,,,,,,,,,,,,,,,,,,325.6696936449989,None,325.6696936449989,None,right,1,0.7868377650011098,325.6696936449989,None,1,326.48644254199826,None,,,,,,,,,,,,,,,,,,,,,,,,,,,,,,,,,,,,,,,,,,,,,,,,,,,,,,,,,,,,,,,,,,,00,Female,20,001,2021_Mar_09_2034,cal_abstract,2020.2.4,59.976865842499606,
,Cond,stimuli/Small/30.jpg,left,,,,,,,,,,,0,56,56,56,,,,,,,,,,,,,,,,,,,,,,,,,,,,,,,,,,,327.2532592869975,None,327.2532592869975,None,left,1,2.1861324250021426,327.2532592869975,None,1,329.4699912899996,None,,,,,,,,,,,,,,,,,,,,,,,,,,,,,,,,,,,,,,,,,,,,,,,,,,,,,,,,,,,,,,,,,,,00,Female,20,001,2021_Mar_09_2034,cal_abstract,2020.2.4,59.976865842499606,
,Fix1,stimuli/Soft/44.jpg,left,,,,,,,,,,,0,57,57,57,,,,,,,,,,,,,,,,,,,,,,,,,,,,,,,,,,,330.23691137199785,None,330.23691137199785,None,left,1,2.1192441769999277,330.23691137199785,None,1,332.3867485699993,None,,,,,,,,,,,,,,,,,,,,,,,,,,,,,,,,,,,,,,,,,,,,,,,,,,,,,,,,,,,,,,,,,,,00,Female,20,001,2021_Mar_09_2034,cal_abstract,2020.2.4,59.976865842499606,
,Fix1,stimuli/Soft/27.jpg,left,,,,,,,,,,,0,58,58,58,,,,,,,,,,,,,,,,,,,,,,,,,,,,,,,,,,,333.15358751999884,None,333.15358751999884,None,left,1,1.473387461999664,333.15358751999884,None,1,334.6533800049983,None,,,,,,,,,,,,,,,,,,,,,,,,,,,,,,,,,,,,,,,,,,,,,,,,,,,,,,,,,,,,,,,,,,,00,Female,20,001,2021_Mar_09_2034,cal_abstract,2020.2.4,59.976865842499606,
,Cond,stimuli/Small/52.jpg,right,,,,,,,,,,,0,59,59,59,,,,,,,,,,,,,,,,,,,,,,,,,,,,,,,,,,,335.42052858999887,None,335.42052858999887,None,right,1,1.8153204549998918,335.42052858999887,None,1,337.2538167149978,None,,,,,,,,,,,,,,,,,,,,,,,,,,,,,,,,,,,,,,,,,,,,,,,,,,,,,,,,,,,,,,,,,,,00,Female,20,001,2021_Mar_09_2034,cal_abstract,2020.2.4,59.976865842499606,
,Cond,stimuli/Small/42.jpg,left,,,,,,,,,,,0,60,60,60,,,,,,,,,,,,,,,,,,,,,,,,,,,,,,,,,,,338.02039648199934,None,338.02039648199934,None,left,1,1.019360708000022,338.02039648199934,None,1,339.0704862849998,None,,,,,,,,,,,,,,,,,,,,,,,,,,,,,,,,,,,,,,,,,,,,,,,,,,,,,,,,,,,,,,,,,,,00,Female,20,001,2021_Mar_09_2034,cal_abstract,2020.2.4,59.976865842499606,
,Fix2,stimuli/School/39.jpg,right,,,,,,,,,,,0,61,61,61,,,,,,,,,,,,,,,,,,,,,,,,,,,,,,,,,,,339.8374467069989,None,339.8374467069989,None,right,1,0.645994962000259,339.8374467069989,None,1,340.50398243199743,None,,,,,,,,,,,,,,,,,,,,,,,,,,,,,,,,,,,,,,,,,,,,,,,,,,,,,,,,,,,,,,,,,,,00,Female,20,001,2021_Mar_09_2034,cal_abstract,2020.2.4,59.976865842499606,
,Fix1,stimuli/Soft/51.jpg,left,,,,,,,,,,,0,62,62,62,,,,,,,,,,,,,,,,,,,,,,,,,,,,,,,,,,,341.2877021569984,None,341.2877021569984,None,left,1,0.8237929620008799,341.2877021569984,None,1,342.1373954419978,None,,,,,,,,,,,,,,,,,,,,,,,,,,,,,,,,,,,,,,,,,,,,,,,,,,,,,,,,,,,,,,,,,,,00,Female,20,001,2021_Mar_09_2034,cal_abstract,2020.2.4,59.976865842499606,
,Cond,stimuli/Small/35.jpg,right,,,,,,,,,,,0,63,63,63,,,,,,,,,,,,,,,,,,,,,,,,,,,,,,,,,,,342.904253187,None,342.904253187,None,right,1,1.5009359799987578,342.904253187,None,1,344.4376278319978,None,,,,,,,,,,,,,,,,,,,,,,,,,,,,,,,,,,,,,,,,,,,,,,,,,,,,,,,,,,,,,,,,,,,00,Female,20,001,2021_Mar_09_2034,cal_abstract,2020.2.4,59.976865842499606,
,Fix1,stimuli/Soft/46.jpg,left,,,,,,,,,,,0,64,64,64,,,,,,,,,,,,,,,,,,,,,,,,,,,,,,,,,,,345.20440183699975,None,345.20440183699975,None,left,1,0.8297306170024967,345.20440183699975,None,1,346.0543094019995,None,,,,,,,,,,,,,,,,,,,,,,,,,,,,,,,,,,,,,,,,,,,,,,,,,,,,,,,,,,,,,,,,,,,00,Female,20,001,2021_Mar_09_2034,cal_abstract,2020.2.4,59.976865842499606,
,Fix2,stimuli/School/44.jpg,right,,,,,,,,,,,0,65,65,65,,,,,,,,,,,,,,,,,,,,,,,,,,,,,,,,,,,346.82115853199866,None,346.82115853199866,None,right,1,1.3949744279998413,346.82115853199866,None,1,348.2379817250003,None,,,,,,,,,,,,,,,,,,,,,,,,,,,,,,,,,,,,,,,,,,,,,,,,,,,,,,,,,,,,,,,,,,,00,Female,20,001,2021_Mar_09_2034,cal_abstract,2020.2.4,59.976865842499606,
,Fix1,stimuli/Soft/0.jpg,left,,,,,,,,,,,0,66,66,66,,,,,,,,,,,,,,,,,,,,,,,,,,,,,,,,,,,349.00468112999806,None,349.00468112999806,None,left,1,0.8731470200000331,349.00468112999806,None,1,349.9046316299973,None,,,,,,,,,,,,,,,,,,,,,,,,,,,,,,,,,,,,,,,,,,,,,,,,,,,,,,,,,,,,,,,,,,,00,Female,20,001,2021_Mar_09_2034,cal_abstract,2020.2.4,59.976865842499606,
,Fix1,stimuli/Soft/59.jpg,left,,,,,,,,,,,0,67,67,67,,,,,,,,,,,,,,,,,,,,,,,,,,,,,,,,,,,350.6714466150006,None,350.6714466150006,None,left,1,1.5144826549985737,350.6714466150006,None,1,352.20485284499955,None,,,,,,,,,,,,,,,,,,,,,,,,,,,,,,,,,,,,,,,,,,,,,,,,,,,,,,,,,,,,,,,,,,,00,Female,20,001,2021_Mar_09_2034,cal_abstract,2020.2.4,59.976865842499606,
,Cond,stimuli/Small/2.jpg,right,,,,,,,,,,,0,68,68,68,,,,,,,,,,,,,,,,,,,,,,,,,,,,,,,,,,,352.9715472149983,None,352.9715472149983,None,right,1,1.3121657519986911,352.9715472149983,None,1,354.30502844199873,None,,,,,,,,,,,,,,,,,,,,,,,,,,,,,,,,,,,,,,,,,,,,,,,,,,,,,,,,,,,,,,,,,,,00,Female,20,001,2021_Mar_09_2034,cal_abstract,2020.2.4,59.976865842499606,
,Fix2,stimuli/School/9.jpg,right,,,,,,,,,,,0,69,69,69,,,,,,,,,,,,,,,,,,,,,,,,,,,,,,,,,,,355.0717366019999,None,355.0717366019999,None,right,1,0.6418864419974852,355.0717366019999,None,1,355.73834652000005,None,,,,,,,,,,,,,,,,,,,,,,,,,,,,,,,,,,,,,,,,,,,,,,,,,,,,,,,,,,,,,,,,,,,00,Female,20,001,2021_Mar_09_2034,cal_abstract,2020.2.4,59.976865842499606,
,Fix2,stimuli/School/41.jpg,right,,,,,,,,,,,0,70,70,70,,,,,,,,,,,,,,,,,,,,,,,,,,,,,,,,,,,356.5051625269989,None,356.5051625269989,None,right,1,1.0144357069984835,356.5051625269989,None,1,357.5385958299994,None,,,,,,,,,,,,,,,,,,,,,,,,,,,,,,,,,,,,,,,,,,,,,,,,,,,,,,,,,,,,,,,,,,,00,Female,20,001,2021_Mar_09_2034,cal_abstract,2020.2.4,59.976865842499606,
,Fix2,stimuli/School/16.jpg,right,,,,,,,,,,,0,71,71,71,,,,,,,,,,,,,,,,,,,,,,,,,,,,,,,,,,,358.30534411999906,None,358.30534411999906,None,right,1,0.6280616229996667,358.30534411999906,None,1,358.9552045249984,None,,,,,,,,,,,,,,,,,,,,,,,,,,,,,,,,,,,,,,,,,,,,,,,,,,,,,,,,,,,,,,,,,,,00,Female,20,001,2021_Mar_09_2034,cal_abstract,2020.2.4,59.976865842499606,
,Cond,stimuli/Small/43.jpg,left,,,,,,,,,,,0,72,72,72,,,,,,,,,,,,,,,,,,,,,,,,,,,,,,,,,,,359.7220256019973,None,359.7220256019973,None,left,1,2.788276107999991,359.7220256019973,None,1,362.53900618699845,None,,,,,,,,,,,,,,,,,,,,,,,,,,,,,,,,,,,,,,,,,,,,,,,,,,,,,,,,,,,,,,,,,,,00,Female,20,001,2021_Mar_09_2034,cal_abstract,2020.2.4,59.976865842499606,
,Fix2,stimuli/School/7.jpg,right,,,,,,,,,,,0,73,73,73,,,,,,,,,,,,,,,,,,,,,,,,,,,,,,,,,,,363.30531918999986,None,363.30531918999986,None,right,1,0.7124328470017645,363.30531918999986,None,1,364.03896920699844,None,,,,,,,,,,,,,,,,,,,,,,,,,,,,,,,,,,,,,,,,,,,,,,,,,,,,,,,,,,,,,,,,,,,00,Female,20,001,2021_Mar_09_2034,cal_abstract,2020.2.4,59.976865842499606,
,Fix2,stimuli/School/10.jpg,right,,,,,,,,,,,0,74,74,74,,,,,,,,,,,,,,,,,,,,,,,,,,,,,,,,,,,364.8057689799971,None,364.8057689799971,None,right,1,1.2287917649991869,364.8057689799971,None,1,366.0559395349992,None,,,,,,,,,,,,,,,,,,,,,,,,,,,,,,,,,,,,,,,,,,,,,,,,,,,,,,,,,,,,,,,,,,,00,Female,20,001,2021_Mar_09_2034,cal_abstract,2020.2.4,59.976865842499606,
,Fix2,stimuli/School/14.jpg,right,,,,,,,,,,,0,75,75,75,,,,,,,,,,,,,,,,,,,,,,,,,,,,,,,,,,,366.82255965199874,None,366.82255965199874,None,right,1,0.6160777499972028,366.82255965199874,None,1,367.45576397200057,None,,,,,,,,,,,,,,,,,,,,,,,,,,,,,,,,,,,,,,,,,,,,,,,,,,,,,,,,,,,,,,,,,,,00,Female,20,001,2021_Mar_09_2034,cal_abstract,2020.2.4,59.976865842499606,
,Cond,stimuli/Small/58.jpg,left,,,,,,,,,,,0,76,76,76,,,,,,,,,,,,,,,,,,,,,,,,,,,,,,,,,,,368.23956837699734,None,368.23956837699734,None,left,1,1.8948609569997643,368.23956837699734,None,1,370.15594872499787,None,,,,,,,,,,,,,,,,,,,,,,,,,,,,,,,,,,,,,,,,,,,,,,,,,,,,,,,,,,,,,,,,,,,00,Female,20,001,2021_Mar_09_2034,cal_abstract,2020.2.4,59.976865842499606,
,Cond,stimuli/Small/10.jpg,right,,,,,,,,,,,0,77,77,77,,,,,,,,,,,,,,,,,,,,,,,,,,,,,,,,,,,370.9227844349989,None,370.9227844349989,None,right,1,1.0513605019987153,370.9227844349989,None,1,372.00624158999926,None,,,,,,,,,,,,,,,,,,,,,,,,,,,,,,,,,,,,,,,,,,,,,,,,,,,,,,,,,,,,,,,,,,,00,Female,20,001,2021_Mar_09_2034,cal_abstract,2020.2.4,59.976865842499606,
,Fix1,stimuli/Soft/38.jpg,left,,,,,,,,,,,0,78,78,78,,,,,,,,,,,,,,,,,,,,,,,,,,,,,,,,,,,372.77311732199814,None,372.77311732199814,None,left,1,0.5339382199999818,372.77311732199814,None,1,373.3392598199971,None,,,,,,,,,,,,,,,,,,,,,,,,,,,,,,,,,,,,,,,,,,,,,,,,,,,,,,,,,,,,,,,,,,,00,Female,20,001,2021_Mar_09_2034,cal_abstract,2020.2.4,59.976865842499606,
,Cond,stimuli/Small/22.jpg,right,,,,,,,,,,,0,79,79,79,,,,,,,,,,,,,,,,,,,,,,,,,,,,,,,,,,,374.10648455699993,None,374.10648455699993,None,right,1,2.279371025000728,374.10648455699993,None,1,376.4065360450004,None,,,,,,,,,,,,,,,,,,,,,,,,,,,,,,,,,,,,,,,,,,,,,,,,,,,,,,,,,,,,,,,,,,,00,Female,20,001,2021_Mar_09_2034,cal_abstract,2020.2.4,59.976865842499606,
,Cond,stimuli/Small/20.jpg,left,,,,,,,,,,,0,80,80,80,,,,,,,,,,,,,,,,,,,,,,,,,,,,,,,,,,,377.1732635949993,None,377.1732635949993,None,left,1,1.4285907829980715,377.1732635949993,None,1,378.62321615700057,None,,,,,,,,,,,,,,,,,,,,,,,,,,,,,,,,,,,,,,,,,,,,,,,,,,,,,,,,,,,,,,,,,,,00,Female,20,001,2021_Mar_09_2034,cal_abstract,2020.2.4,59.976865842499606,
,Cond,stimuli/Small/36.jpg,right,,,,,,,,,,,0,81,81,81,,,,,,,,,,,,,,,,,,,,,,,,,,,,,,,,,,,379.3897857899974,None,379.3897857899974,None,right,1,1.146844905000762,379.3897857899974,None,1,380.5567820670003,None,,,,,,,,,,,,,,,,,,,,,,,,,,,,,,,,,,,,,,,,,,,,,,,,,,,,,,,,,,,,,,,,,,,00,Female,20,001,2021_Mar_09_2034,cal_abstract,2020.2.4,59.976865842499606,
,Cond,stimuli/Small/7.jpg,left,,,,,,,,,,,0,82,82,82,,,,,,,,,,,,,,,,,,,,,,,,,,,,,,,,,,,381.32366230499974,None,381.32366230499974,None,left,1,2.512734129999444,381.32366230499974,None,1,383.8569310999992,None,,,,,,,,,,,,,,,,,,,,,,,,,,,,,,,,,,,,,,,,,,,,,,,,,,,,,,,,,,,,,,,,,,,00,Female,20,001,2021_Mar_09_2034,cal_abstract,2020.2.4,59.976865842499606,
,Fix2,stimuli/School/19.jpg,right,,,,,,,,,,,0,83,83,83,,,,,,,,,,,,,,,,,,,,,,,,,,,,,,,,,,,384.62398884199865,None,384.62398884199865,None,right,1,0.6464063329985947,384.62398884199865,None,1,385.2900369349991,None,,,,,,,,,,,,,,,,,,,,,,,,,,,,,,,,,,,,,,,,,,,,,,,,,,,,,,,,,,,,,,,,,,,00,Female,20,001,2021_Mar_09_2034,cal_abstract,2020.2.4,59.976865842499606,
,Fix1,stimuli/Soft/58.jpg,left,,,,,,,,,,,0,84,84,84,,,,,,,,,,,,,,,,,,,,,,,,,,,,,,,,,,,386.07390829499855,None,386.07390829499855,None,left,1,0.5733894500008319,386.07390829499855,None,1,386.67368996000005,None,,,,,,,,,,,,,,,,,,,,,,,,,,,,,,,,,,,,,,,,,,,,,,,,,,,,,,,,,,,,,,,,,,,00,Female,20,001,2021_Mar_09_2034,cal_abstract,2020.2.4,59.976865842499606,
,Fix1,stimuli/Soft/34.jpg,left,,,,,,,,,,,0,85,85,85,,,,,,,,,,,,,,,,,,,,,,,,,,,,,,,,,,,387.4406283669996,None,387.4406283669996,None,left,1,0.8166006400024344,387.4406283669996,None,1,388.2739577600005,None,,,,,,,,,,,,,,,,,,,,,,,,,,,,,,,,,,,,,,,,,,,,,,,,,,,,,,,,,,,,,,,,,,,00,Female,20,001,2021_Mar_09_2034,cal_abstract,2020.2.4,59.976865842499606,
,Cond,stimuli/Small/54.jpg,right,,,,,,,,,,,0,86,86,86,,,,,,,,,,,,,,,,,,,,,,,,,,,,,,,,,,,389.0413003899994,None,389.0413003899994,None,left,0,17.717905565001274,389.0413003899994,None,0,406.7919463149992,None,,,,,,,,,,,,,,,,,,,,,,,,,,,,,,,,,,,,,,,,,,,,,,,,,,,,,,,,,,,,,,,,,,,00,Female,20,001,2021_Mar_09_2034,cal_abstract,2020.2.4,59.976865842499606,
,Cond,stimuli/Small/56.jpg,left,,,,,,,,,,,0,87,87,87,,,,,,,,,,,,,,,,,,,,,,,,,,,,,,,,,,,407.55868133200056,None,407.55868133200056,None,right,0,1.65215472500131,407.55868133200056,None,0,409.2421017050001,None,,,,,,,,,,,,,,,,,,,,,,,,,,,,,,,,,,,,,,,,,,,,,,,,,,,,,,,,,,,,,,,,,,,00,Female,20,001,2021_Mar_09_2034,cal_abstract,2020.2.4,59.976865842499606,
,Fix1,stimuli/Soft/25.jpg,left,,,,,,,,,,,0,88,88,88,,,,,,,,,,,,,,,,,,,,,,,,,,,,,,,,,,,410.04144825500043,None,410.04144825500043,None,right,0,4.150005169998622,410.04144825500043,None,0,414.20879063999746,None,,,,,,,,,,,,,,,,,,,,,,,,,,,,,,,,,,,,,,,,,,,,,,,,,,,,,,,,,,,,,,,,,,,00,Female,20,001,2021_Mar_09_2034,cal_abstract,2020.2.4,59.976865842499606,
,Fix2,stimuli/School/59.jpg,right,,,,,,,,,,,0,89,89,89,,,,,,,,,,,,,,,,,,,,,,,,,,,,,,,,,,,414.97589998699914,None,414.97589998699914,None,right,1,1.17349583000032,414.97589998699914,None,1,416.17560120000053,None,,,,,,,,,,,,,,,,,,,,,,,,,,,,,,,,,,,,,,,,,,,,,,,,,,,,,,,,,,,,,,,,,,,00,Female,20,001,2021_Mar_09_2034,cal_abstract,2020.2.4,59.976865842499606,
,Cond,stimuli/Small/46.jpg,left,,,,,,,,,,,0,90,90,90,,,,,,,,,,,,,,,,,,,,,,,,,,,,,,,,,,,416.94265297699894,None,416.94265297699894,None,left,1,2.8942169949987147,416.94265297699894,None,1,419.8594379999995,None,,,,,,,,,,,,,,,,,,,,,,,,,,,,,,,,,,,,,,,,,,,,,,,,,,,,,,,,,,,,,,,,,,,00,Female,20,001,2021_Mar_09_2034,cal_abstract,2020.2.4,59.976865842499606,
,Fix1,stimuli/Soft/30.jpg,left,,,,,,,,,,,0,91,91,91,,,,,,,,,,,,,,,,,,,,,,,,,,,,,,,,,,,420.62609464399793,None,420.62609464399793,None,left,1,0.5961951919998683,420.62609464399793,None,1,421.24296625699935,None,,,,,,,,,,,,,,,,,,,,,,,,,,,,,,,,,,,,,,,,,,,,,,,,,,,,,,,,,,,,,,,,,,,00,Female,20,001,2021_Mar_09_2034,cal_abstract,2020.2.4,59.976865842499606,
,Cond,stimuli/Small/32.jpg,right,,,,,,,,,,,0,92,92,92,,,,,,,,,,,,,,,,,,,,,,,,,,,,,,,,,,,422.0099196449992,None,422.0099196449992,None,right,1,1.5672197450003296,422.0099196449992,None,1,423.60963629699836,None,,,,,,,,,,,,,,,,,,,,,,,,,,,,,,,,,,,,,,,,,,,,,,,,,,,,,,,,,,,,,,,,,,,00,Female,20,001,2021_Mar_09_2034,cal_abstract,2020.2.4,59.976865842499606,
,Fix2,stimuli/School/45.jpg,right,,,,,,,,,,,0,93,93,93,,,,,,,,,,,,,,,,,,,,,,,,,,,,,,,,,,,424.37692613499894,None,424.37692613499894,None,right,1,0.669378639999195,424.37692613499894,None,1,425.07639344999916,None,,,,,,,,,,,,,,,,,,,,,,,,,,,,,,,,,,,,,,,,,,,,,,,,,,,,,,,,,,,,,,,,,,,00,Female,20,001,2021_Mar_09_2034,cal_abstract,2020.2.4,59.976865842499606,
,Fix2,stimuli/School/3.jpg,right,,,,,,,,,,,0,94,94,94,,,,,,,,,,,,,,,,,,,,,,,,,,,,,,,,,,,425.8424734349974,None,425.8424734349974,None,right,1,0.7694832019988098,425.8424734349974,None,1,426.64329628999985,None,,,,,,,,,,,,,,,,,,,,,,,,,,,,,,,,,,,,,,,,,,,,,,,,,,,,,,,,,,,,,,,,,,,00,Female,20,001,2021_Mar_09_2034,cal_abstract,2020.2.4,59.976865842499606,
,Fix2,stimuli/School/4.jpg,right,,,,,,,,,,,0,95,95,95,,,,,,,,,,,,,,,,,,,,,,,,,,,,,,,,,,,427.4100521449982,None,427.4100521449982,None,right,1,0.5848065649988712,427.4100521449982,None,1,428.0268019469986,None,,,,,,,,,,,,,,,,,,,,,,,,,,,,,,,,,,,,,,,,,,,,,,,,,,,,,,,,,,,,,,,,,,,00,Female,20,001,2021_Mar_09_2034,cal_abstract,2020.2.4,59.976865842499606,
,Fix2,stimuli/School/37.jpg,right,,,,,,,,,,,0,96,96,96,,,,,,,,,,,,,,,,,,,,,,,,,,,,,,,,,,,428.7935216549995,None,428.7935216549995,None,right,1,0.6883753049987718,428.7935216549995,None,1,429.5102768049983,None,,,,,,,,,,,,,,,,,,,,,,,,,,,,,,,,,,,,,,,,,,,,,,,,,,,,,,,,,,,,,,,,,,,00,Female,20,001,2021_Mar_09_2034,cal_abstract,2020.2.4,59.976865842499606,
,Cond,stimuli/Small/59.jpg,left,,,,,,,,,,,0,97,97,97,,,,,,,,,,,,,,,,,,,,,,,,,,,,,,,,,,,430.2768458499995,None,430.2768458499995,None,left,1,0.9209943349997047,430.2768458499995,None,1,431.2269362469997,None,,,,,,,,,,,,,,,,,,,,,,,,,,,,,,,,,,,,,,,,,,,,,,,,,,,,,,,,,,,,,,,,,,,00,Female,20,001,2021_Mar_09_2034,cal_abstract,2020.2.4,59.976865842499606,
,Fix1,stimuli/Soft/36.jpg,left,,,,,,,,,,,0,98,98,98,,,,,,,,,,,,,,,,,,,,,,,,,,,,,,,,,,,431.99370755199925,None,431.99370755199925,None,left,1,0.939996068002074,431.99370755199925,None,1,432.96053823200054,None,,,,,,,,,,,,,,,,,,,,,,,,,,,,,,,,,,,,,,,,,,,,,,,,,,,,,,,,,,,,,,,,,,,00,Female,20,001,2021_Mar_09_2034,cal_abstract,2020.2.4,59.976865842499606,
,Fix1,stimuli/Soft/11.jpg,left,,,,,,,,,,,0,99,99,99,,,,,,,,,,,,,,,,,,,,,,,,,,,,,,,,,,,433.74397444999704,None,433.74397444999704,None,left,1,4.263206826999522,433.74397444999704,None,1,438.02750255499996,None,,,,,,,,,,,,,,,,,,,,,,,,,,,,,,,,,,,,,,,,,,,,,,,,,,,,,,,,,,,,,,,,,,,00,Female,20,001,2021_Mar_09_2034,cal_abstract,2020.2.4,59.976865842499606,
,Fix1,stimuli/Soft/10.jpg,left,,,,,,,,,,,0,100,100,100,,,,,,,,,,,,,,,,,,,,,,,,,,,,,,,,,,,438.7941708670005,None,438.7941708670005,None,left,1,0.7566404049975972,438.7941708670005,None,1,439.57746737699927,None,,,,,,,,,,,,,,,,,,,,,,,,,,,,,,,,,,,,,,,,,,,,,,,,,,,,,,,,,,,,,,,,,,,00,Female,20,001,2021_Mar_09_2034,cal_abstract,2020.2.4,59.976865842499606,
,Fix2,stimuli/School/6.jpg,right,,,,,,,,,,,0,101,101,101,,,,,,,,,,,,,,,,,,,,,,,,,,,,,,,,,,,440.3444004599987,None,440.3444004599987,None,right,1,0.6865388879996317,440.3444004599987,None,1,441.06102951999856,None,,,,,,,,,,,,,,,,,,,,,,,,,,,,,,,,,,,,,,,,,,,,,,,,,,,,,,,,,,,,,,,,,,,00,Female,20,001,2021_Mar_09_2034,cal_abstract,2020.2.4,59.976865842499606,
,Fix1,stimuli/Soft/50.jpg,left,,,,,,,,,,,0,102,102,102,,,,,,,,,,,,,,,,,,,,,,,,,,,,,,,,,,,441.82770765500027,None,441.82770765500027,None,left,1,0.7678152399967075,441.82770765500027,None,1,442.62727835999976,None,,,,,,,,,,,,,,,,,,,,,,,,,,,,,,,,,,,,,,,,,,,,,,,,,,,,,,,,,,,,,,,,,,,00,Female,20,001,2021_Mar_09_2034,cal_abstract,2020.2.4,59.976865842499606,
,Fix1,stimuli/Soft/19.jpg,left,,,,,,,,,,,0,103,103,103,,,,,,,,,,,,,,,,,,,,,,,,,,,,,,,,,,,443.41136216499945,None,443.41136216499945,None,left,1,0.7373055200005183,443.41136216499945,None,1,444.1763178109977,None,,,,,,,,,,,,,,,,,,,,,,,,,,,,,,,,,,,,,,,,,,,,,,,,,,,,,,,,,,,,,,,,,,,00,Female,20,001,2021_Mar_09_2034,cal_abstract,2020.2.4,59.976865842499606,
,Fix1,stimuli/Soft/55.jpg,left,,,,,,,,,,,0,104,104,104,,,,,,,,,,,,,,,,,,,,,,,,,,,,,,,,,,,444.94470937000006,None,444.94470937000006,None,left,1,0.6587805050003226,444.94470937000006,None,1,445.6279582049974,None,,,,,,,,,,,,,,,,,,,,,,,,,,,,,,,,,,,,,,,,,,,,,,,,,,,,,,,,,,,,,,,,,,,00,Female,20,001,2021_Mar_09_2034,cal_abstract,2020.2.4,59.976865842499606,
,Cond,stimuli/Small/4.jpg,right,,,,,,,,,,,0,105,105,105,,,,,,,,,,,,,,,,,,,,,,,,,,,,,,,,,,,446.3947888119983,None,446.3947888119983,None,right,1,1.1486189979987103,446.3947888119983,None,1,447.5613330669985,None,,,,,,,,,,,,,,,,,,,,,,,,,,,,,,,,,,,,,,,,,,,,,,,,,,,,,,,,,,,,,,,,,,,00,Female,20,001,2021_Mar_09_2034,cal_abstract,2020.2.4,59.976865842499606,
,Fix1,stimuli/Soft/57.jpg,left,,,,,,,,,,,0,106,106,106,,,,,,,,,,,,,,,,,,,,,,,,,,,,,,,,,,,448.32804867199957,None,448.32804867199957,None,left,1,0.5900677250028821,448.32804867199957,None,1,448.9447834269995,None,,,,,,,,,,,,,,,,,,,,,,,,,,,,,,,,,,,,,,,,,,,,,,,,,,,,,,,,,,,,,,,,,,,00,Female,20,001,2021_Mar_09_2034,cal_abstract,2020.2.4,59.976865842499606,
,Cond,stimuli/Small/45.jpg,right,,,,,,,,,,,0,107,107,107,,,,,,,,,,,,,,,,,,,,,,,,,,,,,,,,,,,449.7115985249984,None,449.7115985249984,None,right,1,1.177523292000842,449.7115985249984,None,1,450.91138858699924,None,,,,,,,,,,,,,,,,,,,,,,,,,,,,,,,,,,,,,,,,,,,,,,,,,,,,,,,,,,,,,,,,,,,00,Female,20,001,2021_Mar_09_2034,cal_abstract,2020.2.4,59.976865842499606,
,Fix1,stimuli/Soft/41.jpg,left,,,,,,,,,,,0,108,108,108,,,,,,,,,,,,,,,,,,,,,,,,,,,,,,,,,,,451.6771562499998,None,451.6771562499998,None,left,1,0.7510166539977945,451.6771562499998,None,1,452.4446260549994,None,,,,,,,,,,,,,,,,,,,,,,,,,,,,,,,,,,,,,,,,,,,,,,,,,,,,,,,,,,,,,,,,,,,00,Female,20,001,2021_Mar_09_2034,cal_abstract,2020.2.4,59.976865842499606,
,Cond,stimuli/Small/34.jpg,right,,,,,,,,,,,0,109,109,109,,,,,,,,,,,,,,,,,,,,,,,,,,,,,,,,,,,453.2118253949993,None,453.2118253949993,None,left,0,2.0150478800023848,453.2118253949993,None,0,455.2450678749992,None,,,,,,,,,,,,,,,,,,,,,,,,,,,,,,,,,,,,,,,,,,,,,,,,,,,,,,,,,,,,,,,,,,,00,Female,20,001,2021_Mar_09_2034,cal_abstract,2020.2.4,59.976865842499606,
,Cond,stimuli/Small/25.jpg,left,,,,,,,,,,,0,110,110,110,,,,,,,,,,,,,,,,,,,,,,,,,,,,,,,,,,,456.0288872199999,None,456.0288872199999,None,left,1,2.023730377000902,456.0288872199999,None,1,458.0789067049991,None,,,,,,,,,,,,,,,,,,,,,,,,,,,,,,,,,,,,,,,,,,,,,,,,,,,,,,,,,,,,,,,,,,,00,Female,20,001,2021_Mar_09_2034,cal_abstract,2020.2.4,59.976865842499606,
,Cond,stimuli/Small/8.jpg,right,,,,,,,,,,,0,111,111,111,,,,,,,,,,,,,,,,,,,,,,,,,,,,,,,,,,,458.8451886469993,None,458.8451886469993,None,right,1,0.9334142379993864,458.8451886469993,None,1,459.79552773499745,None,,,,,,,,,,,,,,,,,,,,,,,,,,,,,,,,,,,,,,,,,,,,,,,,,,,,,,,,,,,,,,,,,,,00,Female,20,001,2021_Mar_09_2034,cal_abstract,2020.2.4,59.976865842499606,
,Fix2,stimuli/School/25.jpg,right,,,,,,,,,,,0,112,112,112,,,,,,,,,,,,,,,,,,,,,,,,,,,,,,,,,,,460.5623704319987,None,460.5623704319987,None,right,1,0.9789798329984478,460.5623704319987,None,1,461.56224133499927,None,,,,,,,,,,,,,,,,,,,,,,,,,,,,,,,,,,,,,,,,,,,,,,,,,,,,,,,,,,,,,,,,,,,00,Female,20,001,2021_Mar_09_2034,cal_abstract,2020.2.4,59.976865842499606,
,Cond,stimuli/Small/57.jpg,left,,,,,,,,,,,0,113,113,113,,,,,,,,,,,,,,,,,,,,,,,,,,,,,,,,,,,462.33250448000035,None,462.33250448000035,None,left,1,1.180688475000352,462.33250448000035,None,1,463.5457821719974,None,,,,,,,,,,,,,,,,,,,,,,,,,,,,,,,,,,,,,,,,,,,,,,,,,,,,,,,,,,,,,,,,,,,00,Female,20,001,2021_Mar_09_2034,cal_abstract,2020.2.4,59.976865842499606,
,Fix1,stimuli/Soft/3.jpg,left,,,,,,,,,,,0,114,114,114,,,,,,,,,,,,,,,,,,,,,,,,,,,,,,,,,,,464.3125503070005,None,464.3125503070005,None,left,1,1.2116877750013373,464.3125503070005,None,1,465.54596894699716,None,,,,,,,,,,,,,,,,,,,,,,,,,,,,,,,,,,,,,,,,,,,,,,,,,,,,,,,,,,,,,,,,,,,00,Female,20,001,2021_Mar_09_2034,cal_abstract,2020.2.4,59.976865842499606,
,Fix1,stimuli/Soft/40.jpg,left,,,,,,,,,,,0,115,115,115,,,,,,,,,,,,,,,,,,,,,,,,,,,,,,,,,,,466.3127414699993,None,466.3127414699993,None,left,1,1.0352090150008735,466.3127414699993,None,1,467.3796015150001,None,,,,,,,,,,,,,,,,,,,,,,,,,,,,,,,,,,,,,,,,,,,,,,,,,,,,,,,,,,,,,,,,,,,00,Female,20,001,2021_Mar_09_2034,cal_abstract,2020.2.4,59.976865842499606,
,Fix1,stimuli/Soft/42.jpg,left,,,,,,,,,,,0,116,116,116,,,,,,,,,,,,,,,,,,,,,,,,,,,,,,,,,,,468.14646632499716,None,468.14646632499716,None,left,1,0.6146222000024864,468.14646632499716,None,1,468.7795809269992,None,,,,,,,,,,,,,,,,,,,,,,,,,,,,,,,,,,,,,,,,,,,,,,,,,,,,,,,,,,,,,,,,,,,00,Female,20,001,2021_Mar_09_2034,cal_abstract,2020.2.4,59.976865842499606,
,Fix2,stimuli/School/32.jpg,right,,,,,,,,,,,0,117,117,117,,,,,,,,,,,,,,,,,,,,,,,,,,,,,,,,,,,469.54628772700016,None,469.54628772700016,None,right,1,0.7154284450007253,469.54628772700016,None,1,470.29641115199775,None,,,,,,,,,,,,,,,,,,,,,,,,,,,,,,,,,,,,,,,,,,,,,,,,,,,,,,,,,,,,,,,,,,,00,Female,20,001,2021_Mar_09_2034,cal_abstract,2020.2.4,59.976865842499606,
,Cond,stimuli/Small/29.jpg,left,,,,,,,,,,,0,118,118,118,,,,,,,,,,,,,,,,,,,,,,,,,,,,,,,,,,,471.06326247499965,None,471.06326247499965,None,left,1,1.2723675350025587,471.06326247499965,None,1,472.3630763769979,None,,,,,,,,,,,,,,,,,,,,,,,,,,,,,,,,,,,,,,,,,,,,,,,,,,,,,,,,,,,,,,,,,,,00,Female,20,001,2021_Mar_09_2034,cal_abstract,2020.2.4,59.976865842499606,
,Fix1,stimuli/Soft/9.jpg,left,,,,,,,,,,,0,119,119,119,,,,,,,,,,,,,,,,,,,,,,,,,,,,,,,,,,,473.1298666319999,None,473.1298666319999,None,left,1,0.8118219019997923,473.1298666319999,None,1,473.9632563819978,None,,,,,,,,,,,,,,,,,,,,,,,,,,,,,,,,,,,,,,,,,,,,,,,,,,,,,,,,,,,,,,,,,,,00,Female,20,001,2021_Mar_09_2034,cal_abstract,2020.2.4,59.976865842499606,
,Cond,stimuli/Small/33.jpg,right,,,,,,,,,,,0,120,120,120,,,,,,,,,,,,,,,,,,,,,,,,,,,,,,,,,,,474.7305138470001,None,474.7305138470001,None,right,1,0.699167867001961,474.7305138470001,None,1,475.4465088249999,None,,,,,,,,,,,,,,,,,,,,,,,,,,,,,,,,,,,,,,,,,,,,,,,,,,,,,,,,,,,,,,,,,,,00,Female,20,001,2021_Mar_09_2034,cal_abstract,2020.2.4,59.976865842499606,
,Fix1,stimuli/Soft/12.jpg,left,,,,,,,,,,,0,121,121,121,,,,,,,,,,,,,,,,,,,,,,,,,,,,,,,,,,,476.21358167499784,None,476.21358167499784,None,left,1,0.5638959579991933,476.21358167499784,None,1,476.7966656449971,None,,,,,,,,,,,,,,,,,,,,,,,,,,,,,,,,,,,,,,,,,,,,,,,,,,,,,,,,,,,,,,,,,,,00,Female,20,001,2021_Mar_09_2034,cal_abstract,2020.2.4,59.976865842499606,
,Cond,stimuli/Small/23.jpg,right,,,,,,,,,,,0,122,122,122,,,,,,,,,,,,,,,,,,,,,,,,,,,,,,,,,,,477.5633436099997,None,477.5633436099997,None,right,1,2.4369353119982406,477.5633436099997,None,1,480.03039759199964,None,,,,,,,,,,,,,,,,,,,,,,,,,,,,,,,,,,,,,,,,,,,,,,,,,,,,,,,,,,,,,,,,,,,00,Female,20,001,2021_Mar_09_2034,cal_abstract,2020.2.4,59.976865842499606,
,Fix1,stimuli/Soft/39.jpg,left,,,,,,,,,,,0,123,123,123,,,,,,,,,,,,,,,,,,,,,,,,,,,,,,,,,,,480.7972519299983,None,480.7972519299983,None,left,1,1.2677696150021802,480.7972519299983,None,1,482.09705905199735,None,,,,,,,,,,,,,,,,,,,,,,,,,,,,,,,,,,,,,,,,,,,,,,,,,,,,,,,,,,,,,,,,,,,00,Female,20,001,2021_Mar_09_2034,cal_abstract,2020.2.4,59.976865842499606,
,Fix2,stimuli/School/49.jpg,right,,,,,,,,,,,0,124,124,124,,,,,,,,,,,,,,,,,,,,,,,,,,,,,,,,,,,482.86391656499836,None,482.86391656499836,None,right,1,0.7862177520000841,482.86391656499836,None,1,483.68055652199837,None,,,,,,,,,,,,,,,,,,,,,,,,,,,,,,,,,,,,,,,,,,,,,,,,,,,,,,,,,,,,,,,,,,,00,Female,20,001,2021_Mar_09_2034,cal_abstract,2020.2.4,59.976865842499606,
,Fix1,stimuli/Soft/15.jpg,left,,,,,,,,,,,0,125,125,125,,,,,,,,,,,,,,,,,,,,,,,,,,,,,,,,,,,484.4472419800004,None,484.4472419800004,None,left,1,0.7185632119981165,484.4472419800004,None,1,485.1973984750002,None,,,,,,,,,,,,,,,,,,,,,,,,,,,,,,,,,,,,,,,,,,,,,,,,,,,,,,,,,,,,,,,,,,,00,Female,20,001,2021_Mar_09_2034,cal_abstract,2020.2.4,59.976865842499606,
,Fix2,stimuli/School/34.jpg,right,,,,,,,,,,,0,126,126,126,,,,,,,,,,,,,,,,,,,,,,,,,,,,,,,,,,,485.964104319999,None,485.964104319999,None,right,1,0.9356471499995678,485.964104319999,None,1,486.9307502269985,None,,,,,,,,,,,,,,,,,,,,,,,,,,,,,,,,,,,,,,,,,,,,,,,,,,,,,,,,,,,,,,,,,,,00,Female,20,001,2021_Mar_09_2034,cal_abstract,2020.2.4,59.976865842499606,
,Fix2,stimuli/School/38.jpg,right,,,,,,,,,,,0,127,127,127,,,,,,,,,,,,,,,,,,,,,,,,,,,,,,,,,,,487.69764698699873,None,487.69764698699873,None,right,1,1.8981687629966473,487.69764698699873,None,1,489.6142242649985,None,,,,,,,,,,,,,,,,,,,,,,,,,,,,,,,,,,,,,,,,,,,,,,,,,,,,,,,,,,,,,,,,,,,00,Female,20,001,2021_Mar_09_2034,cal_abstract,2020.2.4,59.976865842499606,
,Fix1,stimuli/Soft/29.jpg,left,,,,,,,,,,,0,128,128,128,,,,,,,,,,,,,,,,,,,,,,,,,,,,,,,,,,,490.39761963699857,None,490.39761963699857,None,left,1,0.6759425120035303,490.39761963699857,None,1,491.09765712199805,None,,,,,,,,,,,,,,,,,,,,,,,,,,,,,,,,,,,,,,,,,,,,,,,,,,,,,,,,,,,,,,,,,,,00,Female,20,001,2021_Mar_09_2034,cal_abstract,2020.2.4,59.976865842499606,
,Fix2,stimuli/School/21.jpg,right,,,,,,,,,,,0,129,129,129,,,,,,,,,,,,,,,,,,,,,,,,,,,,,,,,,,,491.8640596769983,None,491.8640596769983,None,right,1,0.6544640749998507,491.8640596769983,None,1,492.5473567219997,None,,,,,,,,,,,,,,,,,,,,,,,,,,,,,,,,,,,,,,,,,,,,,,,,,,,,,,,,,,,,,,,,,,,00,Female,20,001,2021_Mar_09_2034,cal_abstract,2020.2.4,59.976865842499606,
,Cond,stimuli/Small/11.jpg,left,,,,,,,,,,,0,130,130,130,,,,,,,,,,,,,,,,,,,,,,,,,,,,,,,,,,,493.3145830249996,None,493.3145830249996,None,left,1,0.8998204999988957,493.3145830249996,None,1,494.23123092699825,None,,,,,,,,,,,,,,,,,,,,,,,,,,,,,,,,,,,,,,,,,,,,,,,,,,,,,,,,,,,,,,,,,,,00,Female,20,001,2021_Mar_09_2034,cal_abstract,2020.2.4,59.976865842499606,
,Cond,stimuli/Small/6.jpg,right,,,,,,,,,,,0,131,131,131,,,,,,,,,,,,,,,,,,,,,,,,,,,,,,,,,,,494.99799394,None,494.99799394,None,left,0,0.9553019400009362,494.99799394,None,0,495.980550469998,None,,,,,,,,,,,,,,,,,,,,,,,,,,,,,,,,,,,,,,,,,,,,,,,,,,,,,,,,,,,,,,,,,,,00,Female,20,001,2021_Mar_09_2034,cal_abstract,2020.2.4,59.976865842499606,
,Fix2,stimuli/School/35.jpg,right,,,,,,,,,,,0,132,132,132,,,,,,,,,,,,,,,,,,,,,,,,,,,,,,,,,,,496.749287806997,None,496.749287806997,None,right,1,1.2309171880006033,496.749287806997,None,1,497.99810842199804,None,,,,,,,,,,,,,,,,,,,,,,,,,,,,,,,,,,,,,,,,,,,,,,,,,,,,,,,,,,,,,,,,,,,00,Female,20,001,2021_Mar_09_2034,cal_abstract,2020.2.4,59.976865842499606,
,Fix2,stimuli/School/51.jpg,right,,,,,,,,,,,0,133,133,133,,,,,,,,,,,,,,,,,,,,,,,,,,,,,,,,,,,498.7645466169997,None,498.7645466169997,None,right,1,0.6545403199997963,498.7645466169997,None,1,499.44837196200024,None,,,,,,,,,,,,,,,,,,,,,,,,,,,,,,,,,,,,,,,,,,,,,,,,,,,,,,,,,,,,,,,,,,,00,Female,20,001,2021_Mar_09_2034,cal_abstract,2020.2.4,59.976865842499606,
,Fix1,stimuli/Soft/7.jpg,left,,,,,,,,,,,0,134,134,134,,,,,,,,,,,,,,,,,,,,,,,,,,,,,,,,,,,500.2152628949989,None,500.2152628949989,None,left,1,0.9306713449987001,500.2152628949989,None,1,501.1650723569983,None,,,,,,,,,,,,,,,,,,,,,,,,,,,,,,,,,,,,,,,,,,,,,,,,,,,,,,,,,,,,,,,,,,,00,Female,20,001,2021_Mar_09_2034,cal_abstract,2020.2.4,59.976865842499606,
,Fix1,stimuli/Soft/24.jpg,left,,,,,,,,,,,0,135,135,135,,,,,,,,,,,,,,,,,,,,,,,,,,,,,,,,,,,501.9345313699996,None,501.9345313699996,None,left,1,2.695313741998689,501.9345313699996,None,1,504.64875587499773,None,,,,,,,,,,,,,,,,,,,,,,,,,,,,,,,,,,,,,,,,,,,,,,,,,,,,,,,,,,,,,,,,,,,00,Female,20,001,2021_Mar_09_2034,cal_abstract,2020.2.4,59.976865842499606,
,Cond,stimuli/Small/60.jpg,right,,,,,,,,,,,0,136,136,136,,,,,,,,,,,,,,,,,,,,,,,,,,,,,,,,,,,505.41551778199937,None,505.41551778199937,None,right,1,1.0740808350019506,505.41551778199937,None,1,506.5154279249982,None,,,,,,,,,,,,,,,,,,,,,,,,,,,,,,,,,,,,,,,,,,,,,,,,,,,,,,,,,,,,,,,,,,,00,Female,20,001,2021_Mar_09_2034,cal_abstract,2020.2.4,59.976865842499606,
,Fix1,stimuli/Soft/23.jpg,left,,,,,,,,,,,0,137,137,137,,,,,,,,,,,,,,,,,,,,,,,,,,,,,,,,,,,507.28229307199945,None,507.28229307199945,None,left,1,3.3322158429982665,507.28229307199945,None,1,510.6322449699983,None,,,,,,,,,,,,,,,,,,,,,,,,,,,,,,,,,,,,,,,,,,,,,,,,,,,,,,,,,,,,,,,,,,,00,Female,20,001,2021_Mar_09_2034,cal_abstract,2020.2.4,59.976865842499606,
,Cond,stimuli/Small/3.jpg,right,,,,,,,,,,,0,138,138,138,,,,,,,,,,,,,,,,,,,,,,,,,,,,,,,,,,,511.39930143699894,None,511.39930143699894,None,right,1,0.7204519269980665,511.39930143699894,None,1,512.1492881550002,None,,,,,,,,,,,,,,,,,,,,,,,,,,,,,,,,,,,,,,,,,,,,,,,,,,,,,,,,,,,,,,,,,,,00,Female,20,001,2021_Mar_09_2034,cal_abstract,2020.2.4,59.976865842499606,
,Cond,stimuli/Small/50.jpg,left,,,,,,,,,,,0,139,139,139,,,,,,,,,,,,,,,,,,,,,,,,,,,,,,,,,,,512.9162018869974,None,512.9162018869974,None,left,1,1.1644705400030944,512.9162018869974,None,1,514.0992597349978,None,,,,,,,,,,,,,,,,,,,,,,,,,,,,,,,,,,,,,,,,,,,,,,,,,,,,,,,,,,,,,,,,,,,00,Female,20,001,2021_Mar_09_2034,cal_abstract,2020.2.4,59.976865842499606,
,Fix2,stimuli/School/36.jpg,right,,,,,,,,,,,0,140,140,140,,,,,,,,,,,,,,,,,,,,,,,,,,,,,,,,,,,514.8656451299976,None,514.8656451299976,None,right,1,0.5727542550012004,514.8656451299976,None,1,515.4660464949993,None,,,,,,,,,,,,,,,,,,,,,,,,,,,,,,,,,,,,,,,,,,,,,,,,,,,,,,,,,,,,,,,,,,,00,Female,20,001,2021_Mar_09_2034,cal_abstract,2020.2.4,59.976865842499606,
,Cond,stimuli/Small/14.jpg,left,,,,,,,,,,,0,141,141,141,,,,,,,,,,,,,,,,,,,,,,,,,,,,,,,,,,,516.2328659499981,None,516.2328659499981,None,left,1,0.8833474050006771,516.2328659499981,None,1,517.1496201070004,None,,,,,,,,,,,,,,,,,,,,,,,,,,,,,,,,,,,,,,,,,,,,,,,,,,,,,,,,,,,,,,,,,,,00,Female,20,001,2021_Mar_09_2034,cal_abstract,2020.2.4,59.976865842499606,
,Fix2,stimuli/School/56.jpg,right,,,,,,,,,,,0,142,142,142,,,,,,,,,,,,,,,,,,,,,,,,,,,,,,,,,,,517.9162667119999,None,517.9162667119999,None,right,1,0.6982365199983178,517.9162667119999,None,1,518.6330668400005,None,,,,,,,,,,,,,,,,,,,,,,,,,,,,,,,,,,,,,,,,,,,,,,,,,,,,,,,,,,,,,,,,,,,00,Female,20,001,2021_Mar_09_2034,cal_abstract,2020.2.4,59.976865842499606,
,Fix1,stimuli/Soft/5.jpg,left,,,,,,,,,,,0,143,143,143,,,,,,,,,,,,,,,,,,,,,,,,,,,,,,,,,,,519.3997814319991,None,519.3997814319991,None,left,1,0.8364464870028314,519.3997814319991,None,1,520.2663364649998,None,,,,,,,,,,,,,,,,,,,,,,,,,,,,,,,,,,,,,,,,,,,,,,,,,,,,,,,,,,,,,,,,,,,00,Female,20,001,2021_Mar_09_2034,cal_abstract,2020.2.4,59.976865842499606,
,Cond,stimuli/Small/16.jpg,right,,,,,,,,,,,0,144,144,144,,,,,,,,,,,,,,,,,,,,,,,,,,,,,,,,,,,521.03365347,None,521.03365347,None,right,1,0.9423368000025221,521.03365347,None,1,521.9998657769975,None,,,,,,,,,,,,,,,,,,,,,,,,,,,,,,,,,,,,,,,,,,,,,,,,,,,,,,,,,,,,,,,,,,,00,Female,20,001,2021_Mar_09_2034,cal_abstract,2020.2.4,59.976865842499606,
,Cond,stimuli/Small/27.jpg,left,,,,,,,,,,,0,145,145,145,,,,,,,,,,,,,,,,,,,,,,,,,,,,,,,,,,,522.7666153270002,None,522.7666153270002,None,left,1,0.8961623600007442,522.7666153270002,None,1,523.6834292849999,None,,,,,,,,,,,,,,,,,,,,,,,,,,,,,,,,,,,,,,,,,,,,,,,,,,,,,,,,,,,,,,,,,,,00,Female,20,001,2021_Mar_09_2034,cal_abstract,2020.2.4,59.976865842499606,
,Cond,stimuli/Small/1.jpg,right,,,,,,,,,,,0,146,146,146,,,,,,,,,,,,,,,,,,,,,,,,,,,,,,,,,,,524.4500488699996,None,524.4500488699996,None,right,1,6.822809125002095,524.4500488699996,None,1,531.3004427699998,None,,,,,,,,,,,,,,,,,,,,,,,,,,,,,,,,,,,,,,,,,,,,,,,,,,,,,,,,,,,,,,,,,,,00,Female,20,001,2021_Mar_09_2034,cal_abstract,2020.2.4,59.976865842499606,
,Cond,stimuli/Small/26.jpg,left,,,,,,,,,,,0,147,147,147,,,,,,,,,,,,,,,,,,,,,,,,,,,,,,,,,,,532.067553001998,None,532.067553001998,None,left,1,0.6016842600001837,532.067553001998,None,1,532.7005527099973,None,,,,,,,,,,,,,,,,,,,,,,,,,,,,,,,,,,,,,,,,,,,,,,,,,,,,,,,,,,,,,,,,,,,00,Female,20,001,2021_Mar_09_2034,cal_abstract,2020.2.4,59.976865842499606,
,Cond,stimuli/Small/39.jpg,right,,,,,,,,,,,0,148,148,148,,,,,,,,,,,,,,,,,,,,,,,,,,,,,,,,,,,533.4673370050004,None,533.4673370050004,None,right,1,0.8957625000002736,533.4673370050004,None,1,534.384156226999,None,,,,,,,,,,,,,,,,,,,,,,,,,,,,,,,,,,,,,,,,,,,,,,,,,,,,,,,,,,,,,,,,,,,00,Female,20,001,2021_Mar_09_2034,cal_abstract,2020.2.4,59.976865842499606,
,Cond,stimuli/Small/15.jpg,left,,,,,,,,,,,0,149,149,149,,,,,,,,,,,,,,,,,,,,,,,,,,,,,,,,,,,535.1504983849991,None,535.1504983849991,None,left,1,1.042614854999556,535.1504983849991,None,1,536.2173904249976,None,,,,,,,,,,,,,,,,,,,,,,,,,,,,,,,,,,,,,,,,,,,,,,,,,,,,,,,,,,,,,,,,,,,00,Female,20,001,2021_Mar_09_2034,cal_abstract,2020.2.4,59.976865842499606,
,Fix1,stimuli/Soft/31.jpg,left,,,,,,,,,,,0,150,150,150,,,,,,,,,,,,,,,,,,,,,,,,,,,,,,,,,,,537.001151651999,None,537.001151651999,None,left,1,0.8106781149981543,537.001151651999,None,1,537.8329740769987,None,,,,,,,,,,,,,,,,,,,,,,,,,,,,,,,,,,,,,,,,,,,,,,,,,,,,,,,,,,,,,,,,,,,00,Female,20,001,2021_Mar_09_2034,cal_abstract,2020.2.4,59.976865842499606,
,Fix1,stimuli/Soft/8.jpg,left,,,,,,,,,,,0,151,151,151,,,,,,,,,,,,,,,,,,,,,,,,,,,,,,,,,,,538.6012943099995,None,538.6012943099995,None,left,1,1.8275388770016434,538.6012943099995,None,1,540.4512902850001,None,,,,,,,,,,,,,,,,,,,,,,,,,,,,,,,,,,,,,,,,,,,,,,,,,,,,,,,,,,,,,,,,,,,00,Female,20,001,2021_Mar_09_2034,cal_abstract,2020.2.4,59.976865842499606,
,Fix2,stimuli/School/2.jpg,right,,,,,,,,,,,0,152,152,152,,,,,,,,,,,,,,,,,,,,,,,,,,,,,,,,,,,541.2180373599986,None,541.2180373599986,None,right,1,1.978793742997368,541.2180373599986,None,1,543.2180203699972,None,,,,,,,,,,,,,,,,,,,,,,,,,,,,,,,,,,,,,,,,,,,,,,,,,,,,,,,,,,,,,,,,,,,00,Female,20,001,2021_Mar_09_2034,cal_abstract,2020.2.4,59.976865842499606,
,Fix1,stimuli/Soft/26.jpg,left,,,,,,,,,,,0,153,153,153,,,,,,,,,,,,,,,,,,,,,,,,,,,,,,,,,,,543.9850845769979,None,543.9850845769979,None,left,1,1.3034630200018,543.9850845769979,None,1,545.3181447770003,None,,,,,,,,,,,,,,,,,,,,,,,,,,,,,,,,,,,,,,,,,,,,,,,,,,,,,,,,,,,,,,,,,,,00,Female,20,001,2021_Mar_09_2034,cal_abstract,2020.2.4,59.976865842499606,
,Fix2,stimuli/School/15.jpg,right,,,,,,,,,,,0,154,154,154,,,,,,,,,,,,,,,,,,,,,,,,,,,,,,,,,,,546.0849207520005,None,546.0849207520005,None,right,1,0.6575277170013578,546.0849207520005,None,1,546.7682238649977,None,,,,,,,,,,,,,,,,,,,,,,,,,,,,,,,,,,,,,,,,,,,,,,,,,,,,,,,,,,,,,,,,,,,00,Female,20,001,2021_Mar_09_2034,cal_abstract,2020.2.4,59.976865842499606,
,Fix1,stimuli/Soft/53.jpg,left,,,,,,,,,,,0,155,155,155,,,,,,,,,,,,,,,,,,,,,,,,,,,,,,,,,,,547.5517293470002,None,547.5517293470002,None,left,1,0.5707139570004074,547.5517293470002,None,1,548.1515784269977,None,,,,,,,,,,,,,,,,,,,,,,,,,,,,,,,,,,,,,,,,,,,,,,,,,,,,,,,,,,,,,,,,,,,00,Female,20,001,2021_Mar_09_2034,cal_abstract,2020.2.4,59.976865842499606,
,Fix2,stimuli/School/53.jpg,right,,,,,,,,,,,0,156,156,156,,,,,,,,,,,,,,,,,,,,,,,,,,,,,,,,,,,548.9184333519988,None,548.9184333519988,None,right,1,1.4698819950026518,548.9184333519988,None,1,550.4185050449996,None,,,,,,,,,,,,,,,,,,,,,,,,,,,,,,,,,,,,,,,,,,,,,,,,,,,,,,,,,,,,,,,,,,,00,Female,20,001,2021_Mar_09_2034,cal_abstract,2020.2.4,59.976865842499606,
,Fix2,stimuli/School/31.jpg,right,,,,,,,,,,,0,157,157,157,,,,,,,,,,,,,,,,,,,,,,,,,,,,,,,,,,,551.1847959000006,None,551.1847959000006,None,right,1,0.7503350129991304,551.1847959000006,None,1,551.9519424770006,None,,,,,,,,,,,,,,,,,,,,,,,,,,,,,,,,,,,,,,,,,,,,,,,,,,,,,,,,,,,,,,,,,,,00,Female,20,001,2021_Mar_09_2034,cal_abstract,2020.2.4,59.976865842499606,
,Fix2,stimuli/School/27.jpg,right,,,,,,,,,,,0,158,158,158,,,,,,,,,,,,,,,,,,,,,,,,,,,,,,,,,,,552.7187916799994,None,552.7187916799994,None,right,1,1.822134134999942,552.7187916799994,None,1,554.5687607599975,None,,,,,,,,,,,,,,,,,,,,,,,,,,,,,,,,,,,,,,,,,,,,,,,,,,,,,,,,,,,,,,,,,,,00,Female,20,001,2021_Mar_09_2034,cal_abstract,2020.2.4,59.976865842499606,
,Fix1,stimuli/Soft/21.jpg,left,,,,,,,,,,,0,159,159,159,,,,,,,,,,,,,,,,,,,,,,,,,,,,,,,,,,,555.3355326219971,None,555.3355326219971,None,left,1,1.227268875001755,555.3355326219971,None,1,556.5851290049977,None,,,,,,,,,,,,,,,,,,,,,,,,,,,,,,,,,,,,,,,,,,,,,,,,,,,,,,,,,,,,,,,,,,,00,Female,20,001,2021_Mar_09_2034,cal_abstract,2020.2.4,59.976865842499606,
,Fix1,stimuli/Soft/28.jpg,left,,,,,,,,,,,0,160,160,160,,,,,,,,,,,,,,,,,,,,,,,,,,,,,,,,,,,557.3518804999985,None,557.3518804999985,None,left,1,0.818664438000269,557.3518804999985,None,1,558.2022492399992,None,,,,,,,,,,,,,,,,,,,,,,,,,,,,,,,,,,,,,,,,,,,,,,,,,,,,,,,,,,,,,,,,,,,00,Female,20,001,2021_Mar_09_2034,cal_abstract,2020.2.4,59.976865842499606,
,Fix1,stimuli/Soft/1.jpg,left,,,,,,,,,,,0,161,161,161,,,,,,,,,,,,,,,,,,,,,,,,,,,,,,,,,,,558.9702681649978,None,558.9702681649978,None,left,1,0.8903261519990338,558.9702681649978,None,1,559.8858729869971,None,,,,,,,,,,,,,,,,,,,,,,,,,,,,,,,,,,,,,,,,,,,,,,,,,,,,,,,,,,,,,,,,,,,00,Female,20,001,2021_Mar_09_2034,cal_abstract,2020.2.4,59.976865842499606,
,Fix1,stimuli/Soft/14.jpg,left,,,,,,,,,,,0,162,162,162,,,,,,,,,,,,,,,,,,,,,,,,,,,,,,,,,,,560.652618914999,None,560.652618914999,None,left,1,0.7567536479982664,560.652618914999,None,1,561.4358699619988,None,,,,,,,,,,,,,,,,,,,,,,,,,,,,,,,,,,,,,,,,,,,,,,,,,,,,,,,,,,,,,,,,,,,00,Female,20,001,2021_Mar_09_2034,cal_abstract,2020.2.4,59.976865842499606,
,Fix2,stimuli/School/22.jpg,right,,,,,,,,,,,0,163,163,163,,,,,,,,,,,,,,,,,,,,,,,,,,,,,,,,,,,562.2029821750002,None,562.2029821750002,None,right,1,0.7104145679986686,562.2029821750002,None,1,562.9361401419992,None,,,,,,,,,,,,,,,,,,,,,,,,,,,,,,,,,,,,,,,,,,,,,,,,,,,,,,,,,,,,,,,,,,,00,Female,20,001,2021_Mar_09_2034,cal_abstract,2020.2.4,59.976865842499606,
,Cond,stimuli/Small/19.jpg,left,,,,,,,,,,,0,164,164,164,,,,,,,,,,,,,,,,,,,,,,,,,,,,,,,,,,,563.7027106099995,None,563.7027106099995,None,left,1,1.070583374999842,563.7027106099995,None,1,564.8027514219975,None,,,,,,,,,,,,,,,,,,,,,,,,,,,,,,,,,,,,,,,,,,,,,,,,,,,,,,,,,,,,,,,,,,,00,Female,20,001,2021_Mar_09_2034,cal_abstract,2020.2.4,59.976865842499606,
,Fix1,stimuli/Soft/22.jpg,left,,,,,,,,,,,0,165,165,165,,,,,,,,,,,,,,,,,,,,,,,,,,,,,,,,,,,565.5697627899972,None,565.5697627899972,None,left,1,0.6934220729999652,565.5697627899972,None,1,566.2863361950003,None,,,,,,,,,,,,,,,,,,,,,,,,,,,,,,,,,,,,,,,,,,,,,,,,,,,,,,,,,,,,,,,,,,,00,Female,20,001,2021_Mar_09_2034,cal_abstract,2020.2.4,59.976865842499606,
,Fix1,stimuli/Soft/16.jpg,left,,,,,,,,,,,0,166,166,166,,,,,,,,,,,,,,,,,,,,,,,,,,,,,,,,,,,567.0694202499981,None,567.0694202499981,None,left,1,0.620781192999857,567.0694202499981,None,1,567.7195829569973,None,,,,,,,,,,,,,,,,,,,,,,,,,,,,,,,,,,,,,,,,,,,,,,,,,,,,,,,,,,,,,,,,,,,00,Female,20,001,2021_Mar_09_2034,cal_abstract,2020.2.4,59.976865842499606,
,Fix2,stimuli/School/50.jpg,right,,,,,,,,,,,0,167,167,167,,,,,,,,,,,,,,,,,,,,,,,,,,,,,,,,,,,568.486804745,None,568.486804745,None,right,1,1.7071299000017461,568.486804745,None,1,570.2198337349982,None,,,,,,,,,,,,,,,,,,,,,,,,,,,,,,,,,,,,,,,,,,,,,,,,,,,,,,,,,,,,,,,,,,,00,Female,20,001,2021_Mar_09_2034,cal_abstract,2020.2.4,59.976865842499606,
,Cond,stimuli/Small/48.jpg,left,,,,,,,,,,,0,168,168,168,,,,,,,,,,,,,,,,,,,,,,,,,,,,,,,,,,,570.9866803320001,None,570.9866803320001,None,left,1,0.8951480180003273,570.9866803320001,None,1,571.9034027519992,None,,,,,,,,,,,,,,,,,,,,,,,,,,,,,,,,,,,,,,,,,,,,,,,,,,,,,,,,,,,,,,,,,,,00,Female,20,001,2021_Mar_09_2034,cal_abstract,2020.2.4,59.976865842499606,
,Fix2,stimuli/School/54.jpg,right,,,,,,,,,,,0,169,169,169,,,,,,,,,,,,,,,,,,,,,,,,,,,,,,,,,,,572.6700919769974,None,572.6700919769974,None,right,1,0.7546357300016098,572.6700919769974,None,1,573.4534030350005,None,,,,,,,,,,,,,,,,,,,,,,,,,,,,,,,,,,,,,,,,,,,,,,,,,,,,,,,,,,,,,,,,,,,00,Female,20,001,2021_Mar_09_2034,cal_abstract,2020.2.4,59.976865842499606,
,Cond,stimuli/Small/40.jpg,left,,,,,,,,,,,0,170,170,170,,,,,,,,,,,,,,,,,,,,,,,,,,,,,,,,,,,574.2368859649978,None,574.2368859649978,None,left,1,2.623498707998806,574.2368859649978,None,1,576.8867255369987,None,,,,,,,,,,,,,,,,,,,,,,,,,,,,,,,,,,,,,,,,,,,,,,,,,,,,,,,,,,,,,,,,,,,00,Female,20,001,2021_Mar_09_2034,cal_abstract,2020.2.4,59.976865842499606,
,Fix1,stimuli/Soft/33.jpg,left,,,,,,,,,,,0,171,171,171,,,,,,,,,,,,,,,,,,,,,,,,,,,,,,,,,,,577.6533413199977,None,577.6533413199977,None,left,1,1.9099983500018425,577.6533413199977,None,1,579.587170464998,None,,,,,,,,,,,,,,,,,,,,,,,,,,,,,,,,,,,,,,,,,,,,,,,,,,,,,,,,,,,,,,,,,,,00,Female,20,001,2021_Mar_09_2034,cal_abstract,2020.2.4,59.976865842499606,
,Fix2,stimuli/School/29.jpg,right,,,,,,,,,,,0,172,172,172,,,,,,,,,,,,,,,,,,,,,,,,,,,,,,,,,,,580.3539515619996,None,580.3539515619996,None,right,1,0.7222601249995932,580.3539515619996,None,1,581.1038424899998,None,,,,,,,,,,,,,,,,,,,,,,,,,,,,,,,,,,,,,,,,,,,,,,,,,,,,,,,,,,,,,,,,,,,00,Female,20,001,2021_Mar_09_2034,cal_abstract,2020.2.4,59.976865842499606,
,Fix1,stimuli/Soft/45.jpg,left,,,,,,,,,,,0,173,173,173,,,,,,,,,,,,,,,,,,,,,,,,,,,,,,,,,,,581.8737724299972,None,581.8737724299972,None,left,1,0.9514420949999476,581.8737724299972,None,1,582.8543503099972,None,,,,,,,,,,,,,,,,,,,,,,,,,,,,,,,,,,,,,,,,,,,,,,,,,,,,,,,,,,,,,,,,,,,00,Female,20,001,2021_Mar_09_2034,cal_abstract,2020.2.4,59.976865842499606,
,Fix2,stimuli/School/52.jpg,right,,,,,,,,,,,0,174,174,174,,,,,,,,,,,,,,,,,,,,,,,,,,,,,,,,,,,583.6210048949979,None,583.6210048949979,None,right,1,0.7361366900004214,583.6210048949979,None,1,584.3875568650001,None,,,,,,,,,,,,,,,,,,,,,,,,,,,,,,,,,,,,,,,,,,,,,,,,,,,,,,,,,,,,,,,,,,,00,Female,20,001,2021_Mar_09_2034,cal_abstract,2020.2.4,59.976865842499606,
,Fix2,stimuli/School/48.jpg,right,,,,,,,,,,,0,175,175,175,,,,,,,,,,,,,,,,,,,,,,,,,,,,,,,,,,,585.1543366699989,None,585.1543366699989,None,right,1,1.400393294999958,585.1543366699989,None,1,586.5876444299975,None,,,,,,,,,,,,,,,,,,,,,,,,,,,,,,,,,,,,,,,,,,,,,,,,,,,,,,,,,,,,,,,,,,,00,Female,20,001,2021_Mar_09_2034,cal_abstract,2020.2.4,59.976865842499606,
,Fix2,stimuli/School/46.jpg,right,,,,,,,,,,,0,176,176,176,,,,,,,,,,,,,,,,,,,,,,,,,,,,,,,,,,,587.353949327,None,587.353949327,None,right,1,1.0058140770015598,587.353949327,None,1,588.3877556949992,None,,,,,,,,,,,,,,,,,,,,,,,,,,,,,,,,,,,,,,,,,,,,,,,,,,,,,,,,,,,,,,,,,,,00,Female,20,001,2021_Mar_09_2034,cal_abstract,2020.2.4,59.976865842499606,
,Cond,stimuli/Small/44.jpg,left,,,,,,,,,,,0,177,177,177,,,,,,,,,,,,,,,,,,,,,,,,,,,,,,,,,,,589.1545529149989,None,589.1545529149989,None,left,1,1.141103279998788,589.1545529149989,None,1,590.3212530050005,None,,,,,,,,,,,,,,,,,,,,,,,,,,,,,,,,,,,,,,,,,,,,,,,,,,,,,,,,,,,,,,,,,,,00,Female,20,001,2021_Mar_09_2034,cal_abstract,2020.2.4,59.976865842499606,
,Fix1,stimuli/Soft/18.jpg,left,,,,,,,,,,,0,178,178,178,,,,,,,,,,,,,,,,,,,,,,,,,,,,,,,,,,,591.0875429819971,None,591.0875429819971,None,left,1,0.6270156649989076,591.0875429819971,None,1,591.7382788149989,None,,,,,,,,,,,,,,,,,,,,,,,,,,,,,,,,,,,,,,,,,,,,,,,,,,,,,,,,,,,,,,,,,,,00,Female,20,001,2021_Mar_09_2034,cal_abstract,2020.2.4,59.976865842499606,
,Cond,stimuli/Small/24.jpg,right,,,,,,,,,,,0,179,179,179,,,,,,,,,,,,,,,,,,,,,,,,,,,,,,,,,,,592.5079574599986,None,592.5079574599986,None,right,1,0.5996232249999593,592.5079574599986,None,1,593.1380778149978,None,,,,,,,,,,,,,,,,,,,,,,,,,,,,,,,,,,,,,,,,,,,,,,,,,,,,,,,,,,,,,,,,,,,00,Female,20,001,2021_Mar_09_2034,cal_abstract,2020.2.4,59.976865842499606,
,,,,,,,,,,,,,,,,,,,,,,,,,,,,,,,,,,,,,,,,,,,,,,,,,,,,,,,,,,,,,,,,593.8881772249988,None,c,2.97126096500142,593.8881772249988,None,,,,,,,,,,,,,,,,,,,,,,,,,,,,,,,,,,,,,,,,,,,,,,,,,,,,,,,,,,,,,00,Female,20,001,2021_Mar_09_2034,cal_abstract,2020.2.4,59.976865842499606,
,,,,,,,,,,,,,,,,,,,,,,,,,,,,,,,,,,,,,,,,,,,,,,,,,,,,,,,,,,,,,,,,,,,,,,596.8883507119972,None,596.8883507119972,None,return,41.56106997700044,596.8883507119972,None,,,,,,,,,,,,,,,,,,,,,,,,,,,,,,,,,,,,,,,,,,,,,,,,,,,,,00,Female,20,001,2021_Mar_09_2034,cal_abstract,2020.2.4,59.976865842499606,
,,,,,,,,,,,,,,,,,,,,,,,,,,,,,,,,,,,,,,,,,,,,,,,,,,,,,,,,,,,,,,,,,,,,,,,,,,,,,,638.4745625449978,None,638.4745625449978,None,s,2.01731914300035,638.4745625449978,None,,,,,,,,,,,,,,,,,,,,,,,,,,,,,,,,,,,,,,,,,,,,,00,Female,20,001,2021_Mar_09_2034,cal_abstract,2020.2.4,59.976865842499606,
,,,,Fix1,stimuli/Sad/31.jpg,right,,,,,,,,,,,,0,0,0,0,,,,,,,,,,,,,,,,,,,,,,,,,,,,,,,,,,,,,,,,0,,,,,,,,,,,,,,,,,,,,,,,,,640.5565491550005,None,640.5565491550005,None,left,0,4.52222083700326,640.5565491550005,None,645.1089379969999,None,,,,,,,,,,,,,,,,,,,,,,,,,,,,,,,,,,00,Female,20,001,2021_Mar_09_2034,cal_abstract,2020.2.4,59.976865842499606,
,,,,Cond,stimuli/Healthy/54.jpg,left,,,,,,,,,,,,0,1,1,1,,,,,,,,,,,,,,,,,,,,,,,,,,,,,,,,,,,,,,,,1,,,,,,,,,,,,,,,,,,,,,,,,,645.8762243450001,None,645.8762243450001,None,left,1,13.0141301069998,645.8762243450001,None,658.9090630249993,None,,,,,,,,,,,,,,,,,,,,,,,,,,,,,,,,,,00,Female,20,001,2021_Mar_09_2034,cal_abstract,2020.2.4,59.976865842499606,
,,,,Fix1,stimuli/Sad/27.jpg,right,,,,,,,,,,,,0,2,2,2,,,,,,,,,,,,,,,,,,,,,,,,,,,,,,,,,,,,,,,,1,,,,,,,,,,,,,,,,,,,,,,,,,659.6760775219991,None,659.6760775219991,None,right,1,4.369065452996438,659.6760775219991,None,664.0763159649978,None,,,,,,,,,,,,,,,,,,,,,,,,,,,,,,,,,,00,Female,20,001,2021_Mar_09_2034,cal_abstract,2020.2.4,59.976865842499606,
,,,,Fix2,stimuli/Wealth/33.jpg,left,,,,,,,,,,,,0,3,3,3,,,,,,,,,,,,,,,,,,,,,,,,,,,,,,,,,,,,,,,,1,,,,,,,,,,,,,,,,,,,,,,,,,664.843137216998,None,664.843137216998,None,left,1,12.799510159999045,664.843137216998,None,677.660047991998,None,,,,,,,,,,,,,,,,,,,,,,,,,,,,,,,,,,00,Female,20,001,2021_Mar_09_2034,cal_abstract,2020.2.4,59.976865842499606,
,,,,Fix2,stimuli/Wealth/55.jpg,left,,,,,,,,,,,,0,4,4,4,,,,,,,,,,,,,,,,,,,,,,,,,,,,,,,,,,,,,,,,0,,,,,,,,,,,,,,,,,,,,,,,,,678.4275704520005,None,678.4275704520005,None,right,0,11.913015153000742,678.4275704520005,None,690.3612828269979,None,,,,,,,,,,,,,,,,,,,,,,,,,,,,,,,,,,00,Female,20,001,2021_Mar_09_2034,cal_abstract,2020.2.4,59.976865842499606,
,,,,Cond,stimuli/Healthy/0.jpg,right,,,,,,,,,,,,0,5,5,5,,,,,,,,,,,,,,,,,,,,,,,,,,,,,,,,,,,,,,,,0,,,,,,,,,,,,,,,,,,,,,,,,,691.1282893469979,None,691.1282893469979,None,left,0,1.8454856149983243,691.1282893469979,None,692.9949961349994,None,,,,,,,,,,,,,,,,,,,,,,,,,,,,,,,,,,00,Female,20,001,2021_Mar_09_2034,cal_abstract,2020.2.4,59.976865842499606,
,,,,Fix1,stimuli/Sad/20.jpg,right,,,,,,,,,,,,0,6,6,6,,,,,,,,,,,,,,,,,,,,,,,,,,,,,,,,,,,,,,,,1,,,,,,,,,,,,,,,,,,,,,,,,,693.7614732719994,None,693.7614732719994,None,right,1,8.57051950299865,693.7614732719994,None,702.3622617649999,None,,,,,,,,,,,,,,,,,,,,,,,,,,,,,,,,,,00,Female,20,001,2021_Mar_09_2034,cal_abstract,2020.2.4,59.976865842499606,
,,,,Fix2,stimuli/Wealth/58.jpg,left,,,,,,,,,,,,0,7,7,7,,,,,,,,,,,,,,,,,,,,,,,,,,,,,,,,,,,,,,,,1,,,,,,,,,,,,,,,,,,,,,,,,,703.128986509997,None,703.128986509997,None,left,1,2.519786982000369,703.128986509997,None,705.678746739999,None,,,,,,,,,,,,,,,,,,,,,,,,,,,,,,,,,,00,Female,20,001,2021_Mar_09_2034,cal_abstract,2020.2.4,59.976865842499606,
,,,,Fix2,stimuli/Wealth/0.jpg,left,,,,,,,,,,,,0,8,8,8,,,,,,,,,,,,,,,,,,,,,,,,,,,,,,,,,,,,,,,,1,,,,,,,,,,,,,,,,,,,,,,,,,706.4451325449991,None,706.4451325449991,None,left,1,1.7603475949981657,706.4451325449991,None,708.2294120049992,None,,,,,,,,,,,,,,,,,,,,,,,,,,,,,,,,,,00,Female,20,001,2021_Mar_09_2034,cal_abstract,2020.2.4,59.976865842499606,
,,,,Fix2,stimuli/Wealth/41.jpg,left,,,,,,,,,,,,0,9,9,9,,,,,,,,,,,,,,,,,,,,,,,,,,,,,,,,,,,,,,,,1,,,,,,,,,,,,,,,,,,,,,,,,,708.9960310099996,None,708.9960310099996,None,left,1,4.9128267470005085,708.9960310099996,None,713.9297787469986,None,,,,,,,,,,,,,,,,,,,,,,,,,,,,,,,,,,00,Female,20,001,2021_Mar_09_2034,cal_abstract,2020.2.4,59.976865842499606,
,,,,Fix2,stimuli/Wealth/2.jpg,left,,,,,,,,,,,,0,10,10,10,,,,,,,,,,,,,,,,,,,,,,,,,,,,,,,,,,,,,,,,1,,,,,,,,,,,,,,,,,,,,,,,,,714.6964583469999,None,714.6964583469999,None,left,1,0.7954810299997916,714.6964583469999,None,715.5128303950005,None,,,,,,,,,,,,,,,,,,,,,,,,,,,,,,,,,,00,Female,20,001,2021_Mar_09_2034,cal_abstract,2020.2.4,59.976865842499606,
,,,,Fix1,stimuli/Sad/47.jpg,right,,,,,,,,,,,,0,11,11,11,,,,,,,,,,,,,,,,,,,,,,,,,,,,,,,,,,,,,,,,1,,,,,,,,,,,,,,,,,,,,,,,,,716.2800789469984,None,716.2800789469984,None,right,1,1.1394987139974546,716.2800789469984,None,717.4466412000002,None,,,,,,,,,,,,,,,,,,,,,,,,,,,,,,,,,,00,Female,20,001,2021_Mar_09_2034,cal_abstract,2020.2.4,59.976865842499606,
,,,,Fix2,stimuli/Wealth/51.jpg,left,,,,,,,,,,,,0,12,12,12,,,,,,,,,,,,,,,,,,,,,,,,,,,,,,,,,,,,,,,,1,,,,,,,,,,,,,,,,,,,,,,,,,718.2134477919972,None,718.2134477919972,None,left,1,0.7692209770029876,718.2134477919972,None,719.0126179709987,None,,,,,,,,,,,,,,,,,,,,,,,,,,,,,,,,,,00,Female,20,001,2021_Mar_09_2034,cal_abstract,2020.2.4,59.976865842499606,
,,,,Cond,stimuli/Healthy/9.jpg,right,,,,,,,,,,,,0,13,13,13,,,,,,,,,,,,,,,,,,,,,,,,,,,,,,,,,,,,,,,,1,,,,,,,,,,,,,,,,,,,,,,,,,719.7801878669998,None,719.7801878669998,None,right,1,1.5691557950012793,719.7801878669998,None,721.3799021449995,None,,,,,,,,,,,,,,,,,,,,,,,,,,,,,,,,,,00,Female,20,001,2021_Mar_09_2034,cal_abstract,2020.2.4,59.976865842499606,
,,,,Cond,stimuli/Healthy/62.jpg,left,,,,,,,,,,,,0,14,14,14,,,,,,,,,,,,,,,,,,,,,,,,,,,,,,,,,,,,,,,,1,,,,,,,,,,,,,,,,,,,,,,,,,722.1470473499976,None,722.1470473499976,None,left,1,2.3983064549975097,722.1470473499976,None,724.5636333949988,None,,,,,,,,,,,,,,,,,,,,,,,,,,,,,,,,,,00,Female,20,001,2021_Mar_09_2034,cal_abstract,2020.2.4,59.976865842499606,
,,,,Cond,stimuli/Healthy/30.jpg,right,,,,,,,,,,,,0,15,15,15,,,,,,,,,,,,,,,,,,,,,,,,,,,,,,,,,,,,,,,,1,,,,,,,,,,,,,,,,,,,,,,,,,725.330899114997,None,725.330899114997,None,right,1,0.933272295002098,725.330899114997,None,726.2972054019992,None,,,,,,,,,,,,,,,,,,,,,,,,,,,,,,,,,,00,Female,20,001,2021_Mar_09_2034,cal_abstract,2020.2.4,59.976865842499606,
,,,,Cond,stimuli/Healthy/4.jpg,left,,,,,,,,,,,,0,16,16,16,,,,,,,,,,,,,,,,,,,,,,,,,,,,,,,,,,,,,,,,1,,,,,,,,,,,,,,,,,,,,,,,,,727.0639889769991,None,727.0639889769991,None,left,1,0.8982300520001445,727.0639889769991,None,727.9808823319981,None,,,,,,,,,,,,,,,,,,,,,,,,,,,,,,,,,,00,Female,20,001,2021_Mar_09_2034,cal_abstract,2020.2.4,59.976865842499606,
,,,,Fix1,stimuli/Sad/34.jpg,right,,,,,,,,,,,,0,17,17,17,,,,,,,,,,,,,,,,,,,,,,,,,,,,,,,,,,,,,,,,1,,,,,,,,,,,,,,,,,,,,,,,,,728.7466614169971,None,728.7466614169971,None,right,1,2.13509705999968,728.7466614169971,None,730.9143206249973,None,,,,,,,,,,,,,,,,,,,,,,,,,,,,,,,,,,00,Female,20,001,2021_Mar_09_2034,cal_abstract,2020.2.4,59.976865842499606,
,,,,Fix1,stimuli/Sad/26.jpg,right,,,,,,,,,,,,0,18,18,18,,,,,,,,,,,,,,,,,,,,,,,,,,,,,,,,,,,,,,,,1,,,,,,,,,,,,,,,,,,,,,,,,,731.6810723319977,None,731.6810723319977,None,right,1,0.9317409449977276,731.6810723319977,None,732.6309678899997,None,,,,,,,,,,,,,,,,,,,,,,,,,,,,,,,,,,00,Female,20,001,2021_Mar_09_2034,cal_abstract,2020.2.4,59.976865842499606,
,,,,Fix2,stimuli/Wealth/13.jpg,left,,,,,,,,,,,,0,19,19,19,,,,,,,,,,,,,,,,,,,,,,,,,,,,,,,,,,,,,,,,1,,,,,,,,,,,,,,,,,,,,,,,,,733.4145486349989,None,733.4145486349989,None,left,1,17.557910024999728,733.4145486349989,None,750.9991541950003,None,,,,,,,,,,,,,,,,,,,,,,,,,,,,,,,,,,00,Female,20,001,2021_Mar_09_2034,cal_abstract,2020.2.4,59.976865842499606,
,,,,Fix2,stimuli/Wealth/46.jpg,left,,,,,,,,,,,,0,20,20,20,,,,,,,,,,,,,,,,,,,,,,,,,,,,,,,,,,,,,,,,1,,,,,,,,,,,,,,,,,,,,,,,,,751.7657317819976,None,751.7657317819976,None,left,1,0.7571451650001109,751.7657317819976,None,752.5490716949971,None,,,,,,,,,,,,,,,,,,,,,,,,,,,,,,,,,,00,Female,20,001,2021_Mar_09_2034,cal_abstract,2020.2.4,59.976865842499606,
,,,,Cond,stimuli/Healthy/42.jpg,right,,,,,,,,,,,,0,21,21,21,,,,,,,,,,,,,,,,,,,,,,,,,,,,,,,,,,,,,,,,1,,,,,,,,,,,,,,,,,,,,,,,,,753.3160154699981,None,753.3160154699981,None,right,1,1.098023168000509,753.3160154699981,None,754.4325996599982,None,,,,,,,,,,,,,,,,,,,,,,,,,,,,,,,,,,00,Female,20,001,2021_Mar_09_2034,cal_abstract,2020.2.4,59.976865842499606,
,,,,Fix2,stimuli/Wealth/49.jpg,left,,,,,,,,,,,,0,22,22,22,,,,,,,,,,,,,,,,,,,,,,,,,,,,,,,,,,,,,,,,1,,,,,,,,,,,,,,,,,,,,,,,,,755.1993695349993,None,755.1993695349993,None,left,1,0.8535407550007221,755.1993695349993,None,756.0825935049979,None,,,,,,,,,,,,,,,,,,,,,,,,,,,,,,,,,,00,Female,20,001,2021_Mar_09_2034,cal_abstract,2020.2.4,59.976865842499606,
,,,,Fix2,stimuli/Wealth/12.jpg,left,,,,,,,,,,,,0,23,23,23,,,,,,,,,,,,,,,,,,,,,,,,,,,,,,,,,,,,,,,,1,,,,,,,,,,,,,,,,,,,,,,,,,756.8660113699989,None,756.8660113699989,None,left,1,0.9169326850023936,756.8660113699989,None,757.8152512249981,None,,,,,,,,,,,,,,,,,,,,,,,,,,,,,,,,,,00,Female,20,001,2021_Mar_09_2034,cal_abstract,2020.2.4,59.976865842499606,
,,,,Fix2,stimuli/Wealth/25.jpg,left,,,,,,,,,,,,0,24,24,24,,,,,,,,,,,,,,,,,,,,,,,,,,,,,,,,,,,,,,,,0,,,,,,,,,,,,,,,,,,,,,,,,,758.5829420970003,None,758.5829420970003,None,right,0,2.1925274820023333,758.5829420970003,None,760.799673311998,None,,,,,,,,,,,,,,,,,,,,,,,,,,,,,,,,,,00,Female,20,001,2021_Mar_09_2034,cal_abstract,2020.2.4,59.976865842499606,
,,,,Fix1,stimuli/Sad/58.jpg,right,,,,,,,,,,,,0,25,25,25,,,,,,,,,,,,,,,,,,,,,,,,,,,,,,,,,,,,,,,,1,,,,,,,,,,,,,,,,,,,,,,,,,761.5664377569992,None,761.5664377569992,None,right,1,0.8728902250004467,761.5664377569992,None,762.4662654819986,None,,,,,,,,,,,,,,,,,,,,,,,,,,,,,,,,,,00,Female,20,001,2021_Mar_09_2034,cal_abstract,2020.2.4,59.976865842499606,
,,,,Fix1,stimuli/Sad/3.jpg,right,,,,,,,,,,,,0,26,26,26,,,,,,,,,,,,,,,,,,,,,,,,,,,,,,,,,,,,,,,,1,,,,,,,,,,,,,,,,,,,,,,,,,763.233414424998,None,763.233414424998,None,right,1,0.8738174930003879,763.233414424998,None,764.1331948769985,None,,,,,,,,,,,,,,,,,,,,,,,,,,,,,,,,,,00,Female,20,001,2021_Mar_09_2034,cal_abstract,2020.2.4,59.976865842499606,
,,,,Fix1,stimuli/Sad/35.jpg,right,,,,,,,,,,,,0,27,27,27,,,,,,,,,,,,,,,,,,,,,,,,,,,,,,,,,,,,,,,,1,,,,,,,,,,,,,,,,,,,,,,,,,764.9002962699997,None,764.9002962699997,None,right,1,0.7828880749984819,764.9002962699997,None,765.6999223569983,None,,,,,,,,,,,,,,,,,,,,,,,,,,,,,,,,,,00,Female,20,001,2021_Mar_09_2034,cal_abstract,2020.2.4,59.976865842499606,
,,,,Fix1,stimuli/Sad/42.jpg,right,,,,,,,,,,,,0,28,28,28,,,,,,,,,,,,,,,,,,,,,,,,,,,,,,,,,,,,,,,,1,,,,,,,,,,,,,,,,,,,,,,,,,766.4668027669977,None,766.4668027669977,None,right,1,0.7131725580002239,766.4668027669977,None,767.1999853149973,None,,,,,,,,,,,,,,,,,,,,,,,,,,,,,,,,,,00,Female,20,001,2021_Mar_09_2034,cal_abstract,2020.2.4,59.976865842499606,
,,,,Fix2,stimuli/Wealth/16.jpg,left,,,,,,,,,,,,0,29,29,29,,,,,,,,,,,,,,,,,,,,,,,,,,,,,,,,,,,,,,,,1,,,,,,,,,,,,,,,,,,,,,,,,,767.9674284249995,None,767.9674284249995,None,left,1,0.8105371620004007,767.9674284249995,None,768.8001534699979,None,,,,,,,,,,,,,,,,,,,,,,,,,,,,,,,,,,00,Female,20,001,2021_Mar_09_2034,cal_abstract,2020.2.4,59.976865842499606,
,,,,Fix2,stimuli/Wealth/10.jpg,left,,,,,,,,,,,,0,30,30,30,,,,,,,,,,,,,,,,,,,,,,,,,,,,,,,,,,,,,,,,1,,,,,,,,,,,,,,,,,,,,,,,,,769.5677220649995,None,769.5677220649995,None,left,1,0.7741031700024905,769.5677220649995,None,770.3668904419974,None,,,,,,,,,,,,,,,,,,,,,,,,,,,,,,,,,,00,Female,20,001,2021_Mar_09_2034,cal_abstract,2020.2.4,59.976865842499606,
,,,,Fix2,stimuli/Wealth/28.jpg,left,,,,,,,,,,,,0,31,31,31,,,,,,,,,,,,,,,,,,,,,,,,,,,,,,,,,,,,,,,,1,,,,,,,,,,,,,,,,,,,,,,,,,771.133787114999,None,771.133787114999,None,left,1,0.5620187819986313,771.133787114999,None,771.7170766199997,None,,,,,,,,,,,,,,,,,,,,,,,,,,,,,,,,,,00,Female,20,001,2021_Mar_09_2034,cal_abstract,2020.2.4,59.976865842499606,
,,,,Fix1,stimuli/Sad/32.jpg,right,,,,,,,,,,,,0,32,32,32,,,,,,,,,,,,,,,,,,,,,,,,,,,,,,,,,,,,,,,,1,,,,,,,,,,,,,,,,,,,,,,,,,772.4838750469971,None,772.4838750469971,None,right,1,0.678801559999556,772.4838750469971,None,773.1837974369992,None,,,,,,,,,,,,,,,,,,,,,,,,,,,,,,,,,,00,Female,20,001,2021_Mar_09_2034,cal_abstract,2020.2.4,59.976865842499606,
,,,,Fix1,stimuli/Sad/55.jpg,right,,,,,,,,,,,,0,33,33,33,,,,,,,,,,,,,,,,,,,,,,,,,,,,,,,,,,,,,,,,1,,,,,,,,,,,,,,,,,,,,,,,,,773.9506648569986,None,773.9506648569986,None,right,1,0.7310221600018849,773.9506648569986,None,774.7005733519982,None,,,,,,,,,,,,,,,,,,,,,,,,,,,,,,,,,,00,Female,20,001,2021_Mar_09_2034,cal_abstract,2020.2.4,59.976865842499606,
,,,,Fix1,stimuli/Sad/7.jpg,right,,,,,,,,,,,,0,34,34,34,,,,,,,,,,,,,,,,,,,,,,,,,,,,,,,,,,,,,,,,1,,,,,,,,,,,,,,,,,,,,,,,,,775.4675256199989,None,775.4675256199989,None,right,1,0.5209884399992006,775.4675256199989,None,776.017450911997,None,,,,,,,,,,,,,,,,,,,,,,,,,,,,,,,,,,00,Female,20,001,2021_Mar_09_2034,cal_abstract,2020.2.4,59.976865842499606,
,,,,Cond,stimuli/Healthy/29.jpg,left,,,,,,,,,,,,0,35,35,35,,,,,,,,,,,,,,,,,,,,,,,,,,,,,,,,,,,,,,,,1,,,,,,,,,,,,,,,,,,,,,,,,,776.7841540669979,None,776.7841540669979,None,left,1,1.4340461000028881,776.7841540669979,None,778.2508307899989,None,,,,,,,,,,,,,,,,,,,,,,,,,,,,,,,,,,00,Female,20,001,2021_Mar_09_2034,cal_abstract,2020.2.4,59.976865842499606,
,,,,Fix1,stimuli/Sad/5.jpg,right,,,,,,,,,,,,0,36,36,36,,,,,,,,,,,,,,,,,,,,,,,,,,,,,,,,,,,,,,,,1,,,,,,,,,,,,,,,,,,,,,,,,,779.0173586450001,None,779.0173586450001,None,right,1,0.5738557379991107,779.0173586450001,None,779.6175309350001,None,,,,,,,,,,,,,,,,,,,,,,,,,,,,,,,,,,00,Female,20,001,2021_Mar_09_2034,cal_abstract,2020.2.4,59.976865842499606,
,,,,Cond,stimuli/Healthy/21.jpg,left,,,,,,,,,,,,0,37,37,37,,,,,,,,,,,,,,,,,,,,,,,,,,,,,,,,,,,,,,,,1,,,,,,,,,,,,,,,,,,,,,,,,,780.4011871069997,None,780.4011871069997,None,left,1,1.110952234997967,780.4011871069997,None,781.5343718069998,None,,,,,,,,,,,,,,,,,,,,,,,,,,,,,,,,,,00,Female,20,001,2021_Mar_09_2034,cal_abstract,2020.2.4,59.976865842499606,
,,,,Cond,stimuli/Healthy/38.jpg,right,,,,,,,,,,,,0,38,38,38,,,,,,,,,,,,,,,,,,,,,,,,,,,,,,,,,,,,,,,,1,,,,,,,,,,,,,,,,,,,,,,,,,782.3011644619983,None,782.3011644619983,None,right,1,1.6828595999977551,782.3011644619983,None,784.001394011997,None,,,,,,,,,,,,,,,,,,,,,,,,,,,,,,,,,,00,Female,20,001,2021_Mar_09_2034,cal_abstract,2020.2.4,59.976865842499606,
,,,,Fix1,stimuli/Sad/41.jpg,right,,,,,,,,,,,,0,39,39,39,,,,,,,,,,,,,,,,,,,,,,,,,,,,,,,,,,,,,,,,1,,,,,,,,,,,,,,,,,,,,,,,,,784.7680713119989,None,784.7680713119989,None,right,1,0.8057507000012265,784.7680713119989,None,785.6013833750003,None,,,,,,,,,,,,,,,,,,,,,,,,,,,,,,,,,,00,Female,20,001,2021_Mar_09_2034,cal_abstract,2020.2.4,59.976865842499606,
,,,,Fix2,stimuli/Wealth/1.jpg,left,,,,,,,,,,,,0,40,40,40,,,,,,,,,,,,,,,,,,,,,,,,,,,,,,,,,,,,,,,,1,,,,,,,,,,,,,,,,,,,,,,,,,786.3681971000005,None,786.3681971000005,None,left,1,3.469369447000645,786.3681971000005,None,789.8683315249982,None,,,,,,,,,,,,,,,,,,,,,,,,,,,,,,,,,,00,Female,20,001,2021_Mar_09_2034,cal_abstract,2020.2.4,59.976865842499606,
,,,,Fix1,stimuli/Sad/56.jpg,right,,,,,,,,,,,,0,41,41,41,,,,,,,,,,,,,,,,,,,,,,,,,,,,,,,,,,,,,,,,1,,,,,,,,,,,,,,,,,,,,,,,,,790.6351191619979,None,790.6351191619979,None,right,1,1.5990420070011169,790.6351191619979,None,792.251755426998,None,,,,,,,,,,,,,,,,,,,,,,,,,,,,,,,,,,00,Female,20,001,2021_Mar_09_2034,cal_abstract,2020.2.4,59.976865842499606,
,,,,Fix2,stimuli/Wealth/37.jpg,left,,,,,,,,,,,,0,42,42,42,,,,,,,,,,,,,,,,,,,,,,,,,,,,,,,,,,,,,,,,1,,,,,,,,,,,,,,,,,,,,,,,,,793.0187045499988,None,793.0187045499988,None,left,1,0.921321555000759,793.0187045499988,None,793.9685678569986,None,,,,,,,,,,,,,,,,,,,,,,,,,,,,,,,,,,00,Female,20,001,2021_Mar_09_2034,cal_abstract,2020.2.4,59.976865842499606,
,,,,Cond,stimuli/Healthy/18.jpg,right,,,,,,,,,,,,0,43,43,43,,,,,,,,,,,,,,,,,,,,,,,,,,,,,,,,,,,,,,,,1,,,,,,,,,,,,,,,,,,,,,,,,,794.7354220669986,None,794.7354220669986,None,right,1,1.4494537350001337,794.7354220669986,None,796.2018616749992,None,,,,,,,,,,,,,,,,,,,,,,,,,,,,,,,,,,00,Female,20,001,2021_Mar_09_2034,cal_abstract,2020.2.4,59.976865842499606,
,,,,Fix2,stimuli/Wealth/27.jpg,left,,,,,,,,,,,,0,44,44,44,,,,,,,,,,,,,,,,,,,,,,,,,,,,,,,,,,,,,,,,1,,,,,,,,,,,,,,,,,,,,,,,,,796.9691656769974,None,796.9691656769974,None,left,1,1.4115429099983885,796.9691656769974,None,798.402294569998,None,,,,,,,,,,,,,,,,,,,,,,,,,,,,,,,,,,00,Female,20,001,2021_Mar_09_2034,cal_abstract,2020.2.4,59.976865842499606,
,,,,Fix2,stimuli/Wealth/17.jpg,left,,,,,,,,,,,,0,45,45,45,,,,,,,,,,,,,,,,,,,,,,,,,,,,,,,,,,,,,,,,1,,,,,,,,,,,,,,,,,,,,,,,,,799.1856713470006,None,799.1856713470006,None,left,1,1.3268936349995784,799.1856713470006,None,800.5356196399989,None,,,,,,,,,,,,,,,,,,,,,,,,,,,,,,,,,,00,Female,20,001,2021_Mar_09_2034,cal_abstract,2020.2.4,59.976865842499606,
,,,,Cond,stimuli/Healthy/67.jpg,right,,,,,,,,,,,,0,46,46,46,,,,,,,,,,,,,,,,,,,,,,,,,,,,,,,,,,,,,,,,1,,,,,,,,,,,,,,,,,,,,,,,,,801.3025680749997,None,801.3025680749997,None,right,1,1.2748043000028701,801.3025680749997,None,802.6025971870004,None,,,,,,,,,,,,,,,,,,,,,,,,,,,,,,,,,,00,Female,20,001,2021_Mar_09_2034,cal_abstract,2020.2.4,59.976865842499606,
,,,,Cond,stimuli/Healthy/51.jpg,left,,,,,,,,,,,,0,47,47,47,,,,,,,,,,,,,,,,,,,,,,,,,,,,,,,,,,,,,,,,1,,,,,,,,,,,,,,,,,,,,,,,,,803.3693520899978,None,803.3693520899978,None,left,1,1.7259484300011536,803.3693520899978,None,805.1193898099991,None,,,,,,,,,,,,,,,,,,,,,,,,,,,,,,,,,,00,Female,20,001,2021_Mar_09_2034,cal_abstract,2020.2.4,59.976865842499606,
,,,,Cond,stimuli/Healthy/43.jpg,right,,,,,,,,,,,,0,48,48,48,,,,,,,,,,,,,,,,,,,,,,,,,,,,,,,,,,,,,,,,1,,,,,,,,,,,,,,,,,,,,,,,,,805.886575605,None,805.886575605,None,right,1,0.661662990001787,805.886575605,None,806.5695432149987,None,,,,,,,,,,,,,,,,,,,,,,,,,,,,,,,,,,00,Female,20,001,2021_Mar_09_2034,cal_abstract,2020.2.4,59.976865842499606,
,,,,Cond,stimuli/Healthy/15.jpg,left,,,,,,,,,,,,0,49,49,49,,,,,,,,,,,,,,,,,,,,,,,,,,,,,,,,,,,,,,,,1,,,,,,,,,,,,,,,,,,,,,,,,,807.3364907399991,None,807.3364907399991,None,left,1,1.0196716970021953,807.3364907399991,None,808.3862588269985,None,,,,,,,,,,,,,,,,,,,,,,,,,,,,,,,,,,00,Female,20,001,2021_Mar_09_2034,cal_abstract,2020.2.4,59.976865842499606,
,,,,Fix1,stimuli/Sad/33.jpg,right,,,,,,,,,,,,0,50,50,50,,,,,,,,,,,,,,,,,,,,,,,,,,,,,,,,,,,,,,,,1,,,,,,,,,,,,,,,,,,,,,,,,,809.1531160720006,None,809.1531160720006,None,right,1,0.9150148019980406,809.1531160720006,None,810.0863075849993,None,,,,,,,,,,,,,,,,,,,,,,,,,,,,,,,,,,00,Female,20,001,2021_Mar_09_2034,cal_abstract,2020.2.4,59.976865842499606,
,,,,Cond,stimuli/Healthy/68.jpg,left,,,,,,,,,,,,0,51,51,51,,,,,,,,,,,,,,,,,,,,,,,,,,,,,,,,,,,,,,,,1,,,,,,,,,,,,,,,,,,,,,,,,,810.8531998969993,None,810.8531998969993,None,left,1,11.234473535001598,810.8531998969993,None,822.1206947969986,None,,,,,,,,,,,,,,,,,,,,,,,,,,,,,,,,,,00,Female,20,001,2021_Mar_09_2034,cal_abstract,2020.2.4,59.976865842499606,
,,,,Cond,stimuli/Healthy/49.jpg,right,,,,,,,,,,,,0,52,52,52,,,,,,,,,,,,,,,,,,,,,,,,,,,,,,,,,,,,,,,,1,,,,,,,,,,,,,,,,,,,,,,,,,822.8873534769991,None,822.8873534769991,None,right,1,7.205985778000468,822.8873534769991,None,830.1209475169999,None,,,,,,,,,,,,,,,,,,,,,,,,,,,,,,,,,,00,Female,20,001,2021_Mar_09_2034,cal_abstract,2020.2.4,59.976865842499606,
,,,,Fix2,stimuli/Wealth/52.jpg,left,,,,,,,,,,,,0,53,53,53,,,,,,,,,,,,,,,,,,,,,,,,,,,,,,,,,,,,,,,,1,,,,,,,,,,,,,,,,,,,,,,,,,830.8882927669983,None,830.8882927669983,None,left,1,0.5148132680005801,830.8882927669983,None,831.4212563149995,None,,,,,,,,,,,,,,,,,,,,,,,,,,,,,,,,,,00,Female,20,001,2021_Mar_09_2034,cal_abstract,2020.2.4,59.976865842499606,
,,,,Fix1,stimuli/Sad/16.jpg,right,,,,,,,,,,,,0,54,54,54,,,,,,,,,,,,,,,,,,,,,,,,,,,,,,,,,,,,,,,,1,,,,,,,,,,,,,,,,,,,,,,,,,832.1882842569976,None,832.1882842569976,None,right,1,2.0706553119998716,832.1882842569976,None,834.2880341849996,None,,,,,,,,,,,,,,,,,,,,,,,,,,,,,,,,,,00,Female,20,001,2021_Mar_09_2034,cal_abstract,2020.2.4,59.976865842499606,
,,,,Fix2,stimuli/Wealth/23.jpg,left,,,,,,,,,,,,0,55,55,55,,,,,,,,,,,,,,,,,,,,,,,,,,,,,,,,,,,,,,,,1,,,,,,,,,,,,,,,,,,,,,,,,,835.0557985449996,None,835.0557985449996,None,left,1,0.5328573379993031,835.0557985449996,None,835.6214640869985,None,,,,,,,,,,,,,,,,,,,,,,,,,,,,,,,,,,00,Female,20,001,2021_Mar_09_2034,cal_abstract,2020.2.4,59.976865842499606,
,,,,Cond,stimuli/Healthy/37.jpg,right,,,,,,,,,,,,0,56,56,56,,,,,,,,,,,,,,,,,,,,,,,,,,,,,,,,,,,,,,,,1,,,,,,,,,,,,,,,,,,,,,,,,,836.3885040899986,None,836.3885040899986,None,right,1,0.8351159450030536,836.3885040899986,None,837.2548673769998,None,,,,,,,,,,,,,,,,,,,,,,,,,,,,,,,,,,00,Female,20,001,2021_Mar_09_2034,cal_abstract,2020.2.4,59.976865842499606,
,,,,Cond,stimuli/Healthy/25.jpg,left,,,,,,,,,,,,0,57,57,57,,,,,,,,,,,,,,,,,,,,,,,,,,,,,,,,,,,,,,,,1,,,,,,,,,,,,,,,,,,,,,,,,,838.0385884469979,None,838.0385884469979,None,left,1,0.7898953299991263,838.0385884469979,None,838.8549831700002,None,,,,,,,,,,,,,,,,,,,,,,,,,,,,,,,,,,00,Female,20,001,2021_Mar_09_2034,cal_abstract,2020.2.4,59.976865842499606,
,,,,Fix1,stimuli/Sad/43.jpg,right,,,,,,,,,,,,0,58,58,58,,,,,,,,,,,,,,,,,,,,,,,,,,,,,,,,,,,,,,,,1,,,,,,,,,,,,,,,,,,,,,,,,,839.6218487320002,None,839.6218487320002,None,right,1,0.5616932500015537,839.6218487320002,None,840.2051132749984,None,,,,,,,,,,,,,,,,,,,,,,,,,,,,,,,,,,00,Female,20,001,2021_Mar_09_2034,cal_abstract,2020.2.4,59.976865842499606,
,,,,Cond,stimuli/Healthy/17.jpg,left,,,,,,,,,,,,0,59,59,59,,,,,,,,,,,,,,,,,,,,,,,,,,,,,,,,,,,,,,,,1,,,,,,,,,,,,,,,,,,,,,,,,,840.9719913769986,None,840.9719913769986,None,left,1,0.7754236920009134,840.9719913769986,None,841.7720416119992,None,,,,,,,,,,,,,,,,,,,,,,,,,,,,,,,,,,00,Female,20,001,2021_Mar_09_2034,cal_abstract,2020.2.4,59.976865842499606,
,,,,Fix1,stimuli/Sad/8.jpg,right,,,,,,,,,,,,0,60,60,60,,,,,,,,,,,,,,,,,,,,,,,,,,,,,,,,,,,,,,,,1,,,,,,,,,,,,,,,,,,,,,,,,,842.5387619299981,None,842.5387619299981,None,right,1,0.9196052849983971,842.5387619299981,None,843.4886612049995,None,,,,,,,,,,,,,,,,,,,,,,,,,,,,,,,,,,00,Female,20,001,2021_Mar_09_2034,cal_abstract,2020.2.4,59.976865842499606,
,,,,Fix1,stimuli/Sad/19.jpg,right,,,,,,,,,,,,0,61,61,61,,,,,,,,,,,,,,,,,,,,,,,,,,,,,,,,,,,,,,,,1,,,,,,,,,,,,,,,,,,,,,,,,,844.2553649049987,None,844.2553649049987,None,right,1,0.6507169420001446,844.2553649049987,None,844.9386835419973,None,,,,,,,,,,,,,,,,,,,,,,,,,,,,,,,,,,00,Female,20,001,2021_Mar_09_2034,cal_abstract,2020.2.4,59.976865842499606,
,,,,Fix1,stimuli/Sad/48.jpg,right,,,,,,,,,,,,0,62,62,62,,,,,,,,,,,,,,,,,,,,,,,,,,,,,,,,,,,,,,,,1,,,,,,,,,,,,,,,,,,,,,,,,,845.7056146599971,None,845.7056146599971,None,right,1,0.5545572200026072,845.7056146599971,None,846.2889449049981,None,,,,,,,,,,,,,,,,,,,,,,,,,,,,,,,,,,00,Female,20,001,2021_Mar_09_2034,cal_abstract,2020.2.4,59.976865842499606,
,,,,Fix2,stimuli/Wealth/24.jpg,left,,,,,,,,,,,,0,63,63,63,,,,,,,,,,,,,,,,,,,,,,,,,,,,,,,,,,,,,,,,1,,,,,,,,,,,,,,,,,,,,,,,,,847.0556986899974,None,847.0556986899974,None,left,1,0.7341507250021095,847.0556986899974,None,847.8217255529999,None,,,,,,,,,,,,,,,,,,,,,,,,,,,,,,,,,,00,Female,20,001,2021_Mar_09_2034,cal_abstract,2020.2.4,59.976865842499606,
,,,,Fix1,stimuli/Sad/44.jpg,right,,,,,,,,,,,,0,64,64,64,,,,,,,,,,,,,,,,,,,,,,,,,,,,,,,,,,,,,,,,1,,,,,,,,,,,,,,,,,,,,,,,,,848.5893060649978,None,848.5893060649978,None,right,1,0.5866926219969173,848.5893060649978,None,849.2059060069987,None,,,,,,,,,,,,,,,,,,,,,,,,,,,,,,,,,,00,Female,20,001,2021_Mar_09_2034,cal_abstract,2020.2.4,59.976865842499606,
,,,,Fix1,stimuli/Sad/14.jpg,right,,,,,,,,,,,,0,65,65,65,,,,,,,,,,,,,,,,,,,,,,,,,,,,,,,,,,,,,,,,1,,,,,,,,,,,,,,,,,,,,,,,,,849.9724996149998,None,849.9724996149998,None,right,1,0.7223534630029462,849.9724996149998,None,850.7224836419991,None,,,,,,,,,,,,,,,,,,,,,,,,,,,,,,,,,,00,Female,20,001,2021_Mar_09_2034,cal_abstract,2020.2.4,59.976865842499606,
,,,,Cond,stimuli/Healthy/52.jpg,left,,,,,,,,,,,,0,66,66,66,,,,,,,,,,,,,,,,,,,,,,,,,,,,,,,,,,,,,,,,1,,,,,,,,,,,,,,,,,,,,,,,,,851.488796106998,None,851.488796106998,None,left,1,2.8095439499993518,851.488796106998,None,854.3218227059988,None,,,,,,,,,,,,,,,,,,,,,,,,,,,,,,,,,,00,Female,20,001,2021_Mar_09_2034,cal_abstract,2020.2.4,59.976865842499606,
,,,,Fix1,stimuli/Sad/11.jpg,right,,,,,,,,,,,,0,67,67,67,,,,,,,,,,,,,,,,,,,,,,,,,,,,,,,,,,,,,,,,1,,,,,,,,,,,,,,,,,,,,,,,,,855.0895499670005,None,855.0895499670005,None,right,1,0.6536011750031321,855.0895499670005,None,855.7728205899984,None,,,,,,,,,,,,,,,,,,,,,,,,,,,,,,,,,,00,Female,20,001,2021_Mar_09_2034,cal_abstract,2020.2.4,59.976865842499606,
,,,,Cond,stimuli/Healthy/56.jpg,left,,,,,,,,,,,,0,68,68,68,,,,,,,,,,,,,,,,,,,,,,,,,,,,,,,,,,,,,,,,1,,,,,,,,,,,,,,,,,,,,,,,,,856.5394563970003,None,856.5394563970003,None,left,1,3.096698315002868,856.5394563970003,None,859.656464402,None,,,,,,,,,,,,,,,,,,,,,,,,,,,,,,,,,,00,Female,20,001,2021_Mar_09_2034,cal_abstract,2020.2.4,59.976865842499606,
,,,,Cond,stimuli/Healthy/41.jpg,right,,,,,,,,,,,,0,69,69,69,,,,,,,,,,,,,,,,,,,,,,,,,,,,,,,,,,,,,,,,1,,,,,,,,,,,,,,,,,,,,,,,,,860.4234206449983,None,860.4234206449983,None,right,1,1.2979262370026845,860.4234206449983,None,861.7400690449977,None,,,,,,,,,,,,,,,,,,,,,,,,,,,,,,,,,,00,Female,20,001,2021_Mar_09_2034,cal_abstract,2020.2.4,59.976865842499606,
,,,,Fix1,stimuli/Sad/9.jpg,right,,,,,,,,,,,,0,70,70,70,,,,,,,,,,,,,,,,,,,,,,,,,,,,,,,,,,,,,,,,1,,,,,,,,,,,,,,,,,,,,,,,,,862.507079826999,None,862.507079826999,None,right,1,0.7142382979982358,862.507079826999,None,863.2400656520003,None,,,,,,,,,,,,,,,,,,,,,,,,,,,,,,,,,,00,Female,20,001,2021_Mar_09_2034,cal_abstract,2020.2.4,59.976865842499606,
,,,,Fix1,stimuli/Sad/53.jpg,right,,,,,,,,,,,,0,71,71,71,,,,,,,,,,,,,,,,,,,,,,,,,,,,,,,,,,,,,,,,1,,,,,,,,,,,,,,,,,,,,,,,,,864.0068515149978,None,864.0068515149978,None,right,1,0.6872236879971751,864.0068515149978,None,864.7234586849991,None,,,,,,,,,,,,,,,,,,,,,,,,,,,,,,,,,,00,Female,20,001,2021_Mar_09_2034,cal_abstract,2020.2.4,59.976865842499606,
,,,,Fix1,stimuli/Sad/38.jpg,right,,,,,,,,,,,,0,72,72,72,,,,,,,,,,,,,,,,,,,,,,,,,,,,,,,,,,,,,,,,1,,,,,,,,,,,,,,,,,,,,,,,,,865.4902443969986,None,865.4902443969986,None,right,1,0.4235270370008948,865.4902443969986,None,865.940338299999,None,,,,,,,,,,,,,,,,,,,,,,,,,,,,,,,,,,00,Female,20,001,2021_Mar_09_2034,cal_abstract,2020.2.4,59.976865842499606,
,,,,Cond,stimuli/Healthy/46.jpg,left,,,,,,,,,,,,0,73,73,73,,,,,,,,,,,,,,,,,,,,,,,,,,,,,,,,,,,,,,,,1,,,,,,,,,,,,,,,,,,,,,,,,,866.7068963950005,None,866.7068963950005,None,left,1,0.5669017349973728,866.7068963950005,None,867.3070227549979,None,,,,,,,,,,,,,,,,,,,,,,,,,,,,,,,,,,00,Female,20,001,2021_Mar_09_2034,cal_abstract,2020.2.4,59.976865842499606,
,,,,Cond,stimuli/Healthy/65.jpg,right,,,,,,,,,,,,0,74,74,74,,,,,,,,,,,,,,,,,,,,,,,,,,,,,,,,,,,,,,,,1,,,,,,,,,,,,,,,,,,,,,,,,,868.0738287169988,None,868.0738287169988,None,right,1,1.9568346270025359,868.0738287169988,None,870.0567513619972,None,,,,,,,,,,,,,,,,,,,,,,,,,,,,,,,,,,00,Female,20,001,2021_Mar_09_2034,cal_abstract,2020.2.4,59.976865842499606,
,,,,Fix1,stimuli/Sad/2.jpg,right,,,,,,,,,,,,0,75,75,75,,,,,,,,,,,,,,,,,,,,,,,,,,,,,,,,,,,,,,,,1,,,,,,,,,,,,,,,,,,,,,,,,,870.823842026999,None,870.823842026999,None,right,1,0.7845988019980723,870.823842026999,None,871.6408884919983,None,,,,,,,,,,,,,,,,,,,,,,,,,,,,,,,,,,00,Female,20,001,2021_Mar_09_2034,cal_abstract,2020.2.4,59.976865842499606,
,,,,Cond,stimuli/Healthy/11.jpg,left,,,,,,,,,,,,0,76,76,76,,,,,,,,,,,,,,,,,,,,,,,,,,,,,,,,,,,,,,,,1,,,,,,,,,,,,,,,,,,,,,,,,,872.407417041999,None,872.407417041999,None,left,1,0.8161307949994807,872.407417041999,None,873.2406741149971,None,,,,,,,,,,,,,,,,,,,,,,,,,,,,,,,,,,00,Female,20,001,2021_Mar_09_2034,cal_abstract,2020.2.4,59.976865842499606,
,,,,Cond,stimuli/Healthy/69.jpg,right,,,,,,,,,,,,0,77,77,77,,,,,,,,,,,,,,,,,,,,,,,,,,,,,,,,,,,,,,,,1,,,,,,,,,,,,,,,,,,,,,,,,,874.0075662050003,None,874.0075662050003,None,right,1,0.5708511100019678,874.0075662050003,None,874.6076191749999,None,,,,,,,,,,,,,,,,,,,,,,,,,,,,,,,,,,00,Female,20,001,2021_Mar_09_2034,cal_abstract,2020.2.4,59.976865842499606,
,,,,Fix2,stimuli/Wealth/6.jpg,left,,,,,,,,,,,,0,78,78,78,,,,,,,,,,,,,,,,,,,,,,,,,,,,,,,,,,,,,,,,1,,,,,,,,,,,,,,,,,,,,,,,,,875.3741200149998,None,875.3741200149998,None,left,1,0.6001772669987986,875.3741200149998,None,876.0075393570005,None,,,,,,,,,,,,,,,,,,,,,,,,,,,,,,,,,,00,Female,20,001,2021_Mar_09_2034,cal_abstract,2020.2.4,59.976865842499606,
,,,,Fix2,stimuli/Wealth/44.jpg,left,,,,,,,,,,,,0,79,79,79,,,,,,,,,,,,,,,,,,,,,,,,,,,,,,,,,,,,,,,,1,,,,,,,,,,,,,,,,,,,,,,,,,876.7744177469976,None,876.7744177469976,None,left,1,0.4787606300014886,876.7744177469976,None,877.2743342849972,None,,,,,,,,,,,,,,,,,,,,,,,,,,,,,,,,,,00,Female,20,001,2021_Mar_09_2034,cal_abstract,2020.2.4,59.976865842499606,
,,,,Fix2,stimuli/Wealth/9.jpg,left,,,,,,,,,,,,0,80,80,80,,,,,,,,,,,,,,,,,,,,,,,,,,,,,,,,,,,,,,,,1,,,,,,,,,,,,,,,,,,,,,,,,,878.0411011619981,None,878.0411011619981,None,left,1,0.4640157050016569,878.0411011619981,None,878.524378045,None,,,,,,,,,,,,,,,,,,,,,,,,,,,,,,,,,,00,Female,20,001,2021_Mar_09_2034,cal_abstract,2020.2.4,59.976865842499606,
,,,,Fix1,stimuli/Sad/40.jpg,right,,,,,,,,,,,,0,81,81,81,,,,,,,,,,,,,,,,,,,,,,,,,,,,,,,,,,,,,,,,1,,,,,,,,,,,,,,,,,,,,,,,,,879.2913337770005,None,879.2913337770005,None,right,1,0.6807276969993836,879.2913337770005,None,879.9911623549997,None,,,,,,,,,,,,,,,,,,,,,,,,,,,,,,,,,,00,Female,20,001,2021_Mar_09_2034,cal_abstract,2020.2.4,59.976865842499606,
,,,,Cond,stimuli/Healthy/19.jpg,left,,,,,,,,,,,,0,82,82,82,,,,,,,,,,,,,,,,,,,,,,,,,,,,,,,,,,,,,,,,1,,,,,,,,,,,,,,,,,,,,,,,,,880.7579982319985,None,880.7579982319985,None,left,1,0.6140669229971536,880.7579982319985,None,881.3915834269974,None,,,,,,,,,,,,,,,,,,,,,,,,,,,,,,,,,,00,Female,20,001,2021_Mar_09_2034,cal_abstract,2020.2.4,59.976865842499606,
,,,,Fix1,stimuli/Sad/39.jpg,right,,,,,,,,,,,,0,83,83,83,,,,,,,,,,,,,,,,,,,,,,,,,,,,,,,,,,,,,,,,1,,,,,,,,,,,,,,,,,,,,,,,,,882.1750605399975,None,882.1750605399975,None,right,1,0.6577743729976646,882.1750605399975,None,882.8580502269979,None,,,,,,,,,,,,,,,,,,,,,,,,,,,,,,,,,,00,Female,20,001,2021_Mar_09_2034,cal_abstract,2020.2.4,59.976865842499606,
,,,,Cond,stimuli/Healthy/5.jpg,left,,,,,,,,,,,,0,84,84,84,,,,,,,,,,,,,,,,,,,,,,,,,,,,,,,,,,,,,,,,1,,,,,,,,,,,,,,,,,,,,,,,,,883.6249336369983,None,883.6249336369983,None,left,1,0.845710091998626,883.6249336369983,None,884.4916890349996,None,,,,,,,,,,,,,,,,,,,,,,,,,,,,,,,,,,00,Female,20,001,2021_Mar_09_2034,cal_abstract,2020.2.4,59.976865842499606,
