Text,Block1Type,Block1Stim,Block1Corr,Block2Type,Block2Stim,Block2Corr,Block3Type,Block3Stim,Block3Corr,Instruction_loop.thisRepN,Instruction_loop.thisTrialN,Instruction_loop.thisN,Instruction_loop.thisIndex,Block1_loop.thisRepN,Block1_loop.thisTrialN,Block1_loop.thisN,Block1_loop.thisIndex,Block2_loop.thisRepN,Block2_loop.thisTrialN,Block2_loop.thisN,Block2_loop.thisIndex,Block3_loop.thisRepN,Block3_loop.thisTrialN,Block3_loop.thisN,Block3_loop.thisIndex,welcome_text1.started,welcome_text1.stopped,welcome_text2.started,welcome_text2.stopped,welcome_text3.started,welcome_text3.stopped,welcome_resp.keys,welcome_resp.rt,welcome_resp.started,welcome_resp.stopped,instruct_text1.started,instruct_text1.stopped,instruct_text2.started,instruct_text2.stopped,instruct_resp1.keys,instruct_resp1.rt,instruct_resp1.started,instruct_resp1.stopped,start_text1.started,start_text1.stopped,start_text2.started,start_text2.stopped,start_resp1.keys,start_resp1.rt,start_resp1.started,start_resp1.stopped,image1.started,image1.stopped,text1.started,text1.stopped,key_resp1.keys,key_resp1.corr,key_resp1.rt,key_resp1.started,key_resp1.stopped,trialCorrect,feedback_text1.started,feedback_text1.stopped,break_text1.started,break_text1.stopped,break_resp1.keys,break_resp1.rt,break_resp1.started,break_resp1.stopped,intructRemind_text1.started,intructRemind_text1.stopped,instructRemind_text2.started,instructRemind_text2.stopped,instructRemind_resp1.keys,instructRemind_resp1.rt,instructRemind_resp1.started,instructRemind_resp1.stopped,start_text3.started,start_text3.stopped,start_text4.started,start_text4.stopped,start_resp2.keys,start_resp2.rt,start_resp2.started,start_resp2.stopped,image2.started,image2.stopped,text2.started,text2.stopped,key_resp2.keys,key_resp2.corr,key_resp2.rt,key_resp2.started,key_resp2.stopped,feedback_text2.started,feedback_text2.stopped,break_text2.started,break_text2.stopped,break_resp2.keys,break_resp2.rt,break_resp2.started,break_resp2.stopped,start_text5.started,start_text5.stopped,start_text6.started,start_text6.stopped,start_resp3.keys,start_resp3.rt,start_resp3.started,start_resp3.stopped,image3.started,image3.stopped,text3.started,text3.stopped,key_resp3.keys,key_resp3.corr,key_resp3.rt,key_resp3.started,key_resp3.stopped,feedback_text3.started,feedback_text3.stopped,end_text1.started,end_text1.stopped,end_text2.started,end_text2.stopped,end_resp.keys,end_resp.rt,end_resp.started,end_resp.stopped,participant,sex,age,session,date,expName,psychopyVersion,frameRate,
,,,,,,,,,,,,,,,,,,,,,,,,,,18.797123900149018,None,18.797123900149018,None,18.797123900149018,None,return,28.971899199765176,18.797123900149018,None,,,,,,,,,,,,,,,,,,,,,,,,,,,,,,,,,,,,,,,,,,,,,,,,,,,,,,,,,,,,,,,,,,,,,,,,,,,,,,,,,,,,,,,,,,,,,,,41,Male,23,001,2021_Mar_10_1833,cal_abstract,2020.2.4,60.06226066387826,
"You will be presented with a series of images. It is your job to learn, through trial and error, whether the “Left” or “Right” arrow key should be pressed for each image.",,,,,,,,,,0,0,0,0,,,,,,,,,,,,,,,,,,,,,,,47.83551590004936,None,47.83551590004936,None,return,9.789953799918294,47.83551590004936,None,,,,,,,,,,,,,,,,,,,,,,,,,,,,,,,,,,,,,,,,,,,,,,,,,,,,,,,,,,,,,,,,,,,,,,,,,,,,,,,,,,,,,,,41,Male,23,001,2021_Mar_10_1833,cal_abstract,2020.2.4,60.06226066387826,
"For some images you should always press “Left”, and for others you should always press “Right” arrow key.",,,,,,,,,,0,1,1,1,,,,,,,,,,,,,,,,,,,,,,,57.65316019998863,None,57.65316019998863,None,return,1.6885731997899711,57.65316019998863,None,,,,,,,,,,,,,,,,,,,,,,,,,,,,,,,,,,,,,,,,,,,,,,,,,,,,,,,,,,,,,,,,,,,,,,,,,,,,,,,,,,,,,,,41,Male,23,001,2021_Mar_10_1833,cal_abstract,2020.2.4,60.06226066387826,
Some images are special: the correct response is the opposite of the preceding correct response.,,,,,,,,,,0,2,2,2,,,,,,,,,,,,,,,,,,,,,,,59.366475199814886,None,59.366475199814886,None,return,2.2670843000523746,59.366475199814886,None,,,,,,,,,,,,,,,,,,,,,,,,,,,,,,,,,,,,,,,,,,,,,,,,,,,,,,,,,,,,,,,,,,,,,,,,,,,,,,,,,,,,,,,41,Male,23,001,2021_Mar_10_1833,cal_abstract,2020.2.4,60.06226066387826,
"That is, if the previous correct answer was “Left” then the correct response would now be “Right”.",,,,,,,,,,0,3,3,3,,,,,,,,,,,,,,,,,,,,,,,61.66763669997454,None,61.66763669997454,None,return,5.204603399615735,61.66763669997454,None,,,,,,,,,,,,,,,,,,,,,,,,,,,,,,,,,,,,,,,,,,,,,,,,,,,,,,,,,,,,,,,,,,,,,,,,,,,,,,,,,,,,,,,41,Male,23,001,2021_Mar_10_1833,cal_abstract,2020.2.4,60.06226066387826,
"After each response, you will be told whether you got the item correct or incorrect.",,,,,,,,,,0,4,4,4,,,,,,,,,,,,,,,,,,,,,,,66.89682759996504,None,66.89682759996504,None,return,2.841378999873996,66.89682759996504,None,,,,,,,,,,,,,,,,,,,,,,,,,,,,,,,,,,,,,,,,,,,,,,,,,,,,,,,,,,,,,,,,,,,,,,,,,,,,,,,,,,,,,,,41,Male,23,001,2021_Mar_10_1833,cal_abstract,2020.2.4,60.06226066387826,
"You can take as long as you like on each image, but the task will not continue until you press the “Left” or “Right” arrow key.",,,,,,,,,,0,5,5,5,,,,,,,,,,,,,,,,,,,,,,,69.76182160014287,None,69.76182160014287,None,return,1.8124505002051592,69.76182160014287,None,,,,,,,,,,,,,,,,,,,,,,,,,,,,,,,,,,,,,,,,,,,,,,,,,,,,,,,,,,,,,,,,,,,,,,,,,,,,,,,,,,,,,,,41,Male,23,001,2021_Mar_10_1833,cal_abstract,2020.2.4,60.06226066387826,
"The experiment will have three blocks, each block will take approximately 10 minutes to complete.",,,,,,,,,,0,6,6,6,,,,,,,,,,,,,,,,,,,,,,,71.61338920006528,None,71.61338920006528,None,return,2.133307700045407,71.61338920006528,None,,,,,,,,,,,,,,,,,,,,,,,,,,,,,,,,,,,,,,,,,,,,,,,,,,,,,,,,,,,,,,,,,,,,,,,,,,,,,,,,,,,,,,,41,Male,23,001,2021_Mar_10_1833,cal_abstract,2020.2.4,60.06226066387826,
,,,,,,,,,,,,,,,,,,,,,,,,,,,,,,,,,,,,,,,,,,,,73.76752209989354,None,73.76752209989354,None,s,2.0980949997901917,73.76752209989354,None,,,,,,,,,,,,,,,,,,,,,,,,,,,,,,,,,,,,,,,,,,,,,,,,,,,,,,,,,,,,,,,,,,,,,,,,,,,,,,,41,Male,23,001,2021_Mar_10_1833,cal_abstract,2020.2.4,60.06226066387826,
,Fix1,stimuli/Smell/26.jpg,left,,,,,,,,,,,0,0,0,0,,,,,,,,,,,,,,,,,,,,,,,,,,,,,,,,,,,75.96004300005734,None,75.96004300005734,None,right,0,2.414888700004667,75.96004300005734,None,0,78.42117939982563,None,,,,,,,,,,,,,,,,,,,,,,,,,,,,,,,,,,,,,,,,,,,,,,,,,,,,,,,,,,,,,,,,,,,41,Male,23,001,2021_Mar_10_1833,cal_abstract,2020.2.4,60.06226066387826,
,Fix1,stimuli/Smell/27.jpg,left,,,,,,,,,,,0,1,1,1,,,,,,,,,,,,,,,,,,,,,,,,,,,,,,,,,,,79.17612220020965,None,79.17612220020965,None,left,1,2.1910978998057544,79.17612220020965,None,1,81.41472350014374,None,,,,,,,,,,,,,,,,,,,,,,,,,,,,,,,,,,,,,,,,,,,,,,,,,,,,,,,,,,,,,,,,,,,41,Male,23,001,2021_Mar_10_1833,cal_abstract,2020.2.4,60.06226066387826,
,Fix1,stimuli/Smell/23.jpg,left,,,,,,,,,,,0,2,2,2,,,,,,,,,,,,,,,,,,,,,,,,,,,,,,,,,,,82.19804659998044,None,82.19804659998044,None,left,1,1.745095199905336,82.19804659998044,None,1,83.9597223000601,None,,,,,,,,,,,,,,,,,,,,,,,,,,,,,,,,,,,,,,,,,,,,,,,,,,,,,,,,,,,,,,,,,,,41,Male,23,001,2021_Mar_10_1833,cal_abstract,2020.2.4,60.06226066387826,
,Fix1,stimuli/Smell/42.jpg,left,,,,,,,,,,,0,3,3,3,,,,,,,,,,,,,,,,,,,,,,,,,,,,,,,,,,,84.72203910024837,None,84.72203910024837,None,left,1,0.8088293001055717,84.72203910024837,None,1,85.55843510013074,None,,,,,,,,,,,,,,,,,,,,,,,,,,,,,,,,,,,,,,,,,,,,,,,,,,,,,,,,,,,,,,,,,,,41,Male,23,001,2021_Mar_10_1833,cal_abstract,2020.2.4,60.06226066387826,
,Fix2,stimuli/Small/59.jpg,right,,,,,,,,,,,0,4,4,4,,,,,,,,,,,,,,,,,,,,,,,,,,,,,,,,,,,86.32284410018474,None,86.32284410018474,None,right,1,2.4460444999858737,86.32284410018474,None,1,88.78903379989788,None,,,,,,,,,,,,,,,,,,,,,,,,,,,,,,,,,,,,,,,,,,,,,,,,,,,,,,,,,,,,,,,,,,,41,Male,23,001,2021_Mar_10_1833,cal_abstract,2020.2.4,60.06226066387826,
,Cond,stimuli/School/3.jpg,left,,,,,,,,,,,0,5,5,5,,,,,,,,,,,,,,,,,,,,,,,,,,,,,,,,,,,89.55879419995472,None,89.55879419995472,None,right,0,3.5074005001224577,89.55879419995472,None,0,93.08921999996528,None,,,,,,,,,,,,,,,,,,,,,,,,,,,,,,,,,,,,,,,,,,,,,,,,,,,,,,,,,,,,,,,,,,,41,Male,23,001,2021_Mar_10_1833,cal_abstract,2020.2.4,60.06226066387826,
,Fix1,stimuli/Smell/47.jpg,left,,,,,,,,,,,0,6,6,6,,,,,,,,,,,,,,,,,,,,,,,,,,,,,,,,,,,93.8797369999811,None,93.8797369999811,None,left,1,1.1830163998529315,93.8797369999811,None,1,95.09157870011404,None,,,,,,,,,,,,,,,,,,,,,,,,,,,,,,,,,,,,,,,,,,,,,,,,,,,,,,,,,,,,,,,,,,,41,Male,23,001,2021_Mar_10_1833,cal_abstract,2020.2.4,60.06226066387826,
,Fix2,stimuli/Small/41.jpg,right,,,,,,,,,,,0,7,7,7,,,,,,,,,,,,,,,,,,,,,,,,,,,,,,,,,,,95.8814111999236,None,95.8814111999236,None,right,1,2.76310220034793,95.8814111999236,None,1,98.66641349997371,None,,,,,,,,,,,,,,,,,,,,,,,,,,,,,,,,,,,,,,,,,,,,,,,,,,,,,,,,,,,,,,,,,,,41,Male,23,001,2021_Mar_10_1833,cal_abstract,2020.2.4,60.06226066387826,
,Cond,stimuli/School/59.jpg,left,,,,,,,,,,,0,8,8,8,,,,,,,,,,,,,,,,,,,,,,,,,,,,,,,,,,,99.44451070018113,None,99.44451070018113,None,left,1,2.201032300014049,99.44451070018113,None,1,101.66144450008869,None,,,,,,,,,,,,,,,,,,,,,,,,,,,,,,,,,,,,,,,,,,,,,,,,,,,,,,,,,,,,,,,,,,,41,Male,23,001,2021_Mar_10_1833,cal_abstract,2020.2.4,60.06226066387826,
,Fix2,stimuli/Small/50.jpg,right,,,,,,,,,,,0,9,9,9,,,,,,,,,,,,,,,,,,,,,,,,,,,,,,,,,,,102.42372020008042,None,102.42372020008042,None,right,1,1.6294653001241386,102.42372020008042,None,1,104.07636820012704,None,,,,,,,,,,,,,,,,,,,,,,,,,,,,,,,,,,,,,,,,,,,,,,,,,,,,,,,,,,,,,,,,,,,41,Male,23,001,2021_Mar_10_1833,cal_abstract,2020.2.4,60.06226066387826,
,Fix2,stimuli/Small/15.jpg,right,,,,,,,,,,,0,10,10,10,,,,,,,,,,,,,,,,,,,,,,,,,,,,,,,,,,,104.84184709982947,None,104.84184709982947,None,left,0,1.7930919998325408,104.84184709982947,None,0,106.66012769984081,None,,,,,,,,,,,,,,,,,,,,,,,,,,,,,,,,,,,,,,,,,,,,,,,,,,,,,,,,,,,,,,,,,,,41,Male,23,001,2021_Mar_10_1833,cal_abstract,2020.2.4,60.06226066387826,
,Fix1,stimuli/Smell/39.jpg,left,,,,,,,,,,,0,11,11,11,,,,,,,,,,,,,,,,,,,,,,,,,,,,,,,,,,,107.43191380007192,None,107.43191380007192,None,left,1,1.605343600269407,107.43191380007192,None,1,109.0580929000862,None,,,,,,,,,,,,,,,,,,,,,,,,,,,,,,,,,,,,,,,,,,,,,,,,,,,,,,,,,,,,,,,,,,,41,Male,23,001,2021_Mar_10_1833,cal_abstract,2020.2.4,60.06226066387826,
,Fix2,stimuli/Small/34.jpg,right,,,,,,,,,,,0,12,12,12,,,,,,,,,,,,,,,,,,,,,,,,,,,,,,,,,,,109.83823180012405,None,109.83823180012405,None,right,1,34.29656459996477,109.83823180012405,None,1,144.15985389985144,None,,,,,,,,,,,,,,,,,,,,,,,,,,,,,,,,,,,,,,,,,,,,,,,,,,,,,,,,,,,,,,,,,,,41,Male,23,001,2021_Mar_10_1833,cal_abstract,2020.2.4,60.06226066387826,
,Fix1,stimuli/Smell/11.jpg,left,,,,,,,,,,,0,13,13,13,,,,,,,,,,,,,,,,,,,,,,,,,,,,,,,,,,,144.94199710013345,None,144.94199710013345,None,left,1,2.0232855998910964,144.94199710013345,None,1,146.99130490003154,None,,,,,,,,,,,,,,,,,,,,,,,,,,,,,,,,,,,,,,,,,,,,,,,,,,,,,,,,,,,,,,,,,,,41,Male,23,001,2021_Mar_10_1833,cal_abstract,2020.2.4,60.06226066387826,
,Fix1,stimuli/Smell/13.jpg,left,,,,,,,,,,,0,14,14,14,,,,,,,,,,,,,,,,,,,,,,,,,,,,,,,,,,,147.78658109996468,None,147.78658109996468,None,right,0,1.12635019980371,147.78658109996468,None,0,148.9442099998705,None,,,,,,,,,,,,,,,,,,,,,,,,,,,,,,,,,,,,,,,,,,,,,,,,,,,,,,,,,,,,,,,,,,,41,Male,23,001,2021_Mar_10_1833,cal_abstract,2020.2.4,60.06226066387826,
,Cond,stimuli/School/17.jpg,right,,,,,,,,,,,0,15,15,15,,,,,,,,,,,,,,,,,,,,,,,,,,,,,,,,,,,149.72022269992158,None,149.72022269992158,None,right,1,12.970446899998933,149.72022269992158,None,1,162.72058119997382,None,,,,,,,,,,,,,,,,,,,,,,,,,,,,,,,,,,,,,,,,,,,,,,,,,,,,,,,,,,,,,,,,,,,41,Male,23,001,2021_Mar_10_1833,cal_abstract,2020.2.4,60.06226066387826,
,Cond,stimuli/School/38.jpg,left,,,,,,,,,,,0,16,16,16,,,,,,,,,,,,,,,,,,,,,,,,,,,,,,,,,,,163.5046533998102,None,163.5046533998102,None,left,1,1.3280984000302851,163.5046533998102,None,1,164.85922949993983,None,,,,,,,,,,,,,,,,,,,,,,,,,,,,,,,,,,,,,,,,,,,,,,,,,,,,,,,,,,,,,,,,,,,41,Male,23,001,2021_Mar_10_1833,cal_abstract,2020.2.4,60.06226066387826,
,Cond,stimuli/School/19.jpg,right,,,,,,,,,,,0,17,17,17,,,,,,,,,,,,,,,,,,,,,,,,,,,,,,,,,,,165.64014519983903,None,165.64014519983903,None,right,1,6.936286400072277,165.64014519983903,None,1,172.6041514002718,None,,,,,,,,,,,,,,,,,,,,,,,,,,,,,,,,,,,,,,,,,,,,,,,,,,,,,,,,,,,,,,,,,,,41,Male,23,001,2021_Mar_10_1833,cal_abstract,2020.2.4,60.06226066387826,
,Cond,stimuli/School/15.jpg,left,,,,,,,,,,,0,18,18,18,,,,,,,,,,,,,,,,,,,,,,,,,,,,,,,,,,,173.38484370009974,None,173.38484370009974,None,right,0,2.0167670003138483,173.38484370009974,None,0,175.4280289998278,None,,,,,,,,,,,,,,,,,,,,,,,,,,,,,,,,,,,,,,,,,,,,,,,,,,,,,,,,,,,,,,,,,,,41,Male,23,001,2021_Mar_10_1833,cal_abstract,2020.2.4,60.06226066387826,
,Cond,stimuli/School/32.jpg,right,,,,,,,,,,,0,19,19,19,,,,,,,,,,,,,,,,,,,,,,,,,,,,,,,,,,,176.20583390025422,None,176.20583390025422,None,right,1,2.3350768997333944,176.20583390025422,None,1,178.568373600021,None,,,,,,,,,,,,,,,,,,,,,,,,,,,,,,,,,,,,,,,,,,,,,,,,,,,,,,,,,,,,,,,,,,,41,Male,23,001,2021_Mar_10_1833,cal_abstract,2020.2.4,60.06226066387826,
,Cond,stimuli/School/44.jpg,left,,,,,,,,,,,0,20,20,20,,,,,,,,,,,,,,,,,,,,,,,,,,,,,,,,,,,179.356279599946,None,179.356279599946,None,left,1,2.7653767997398973,179.356279599946,None,1,182.14605219988152,None,,,,,,,,,,,,,,,,,,,,,,,,,,,,,,,,,,,,,,,,,,,,,,,,,,,,,,,,,,,,,,,,,,,41,Male,23,001,2021_Mar_10_1833,cal_abstract,2020.2.4,60.06226066387826,
,Fix1,stimuli/Smell/7.jpg,left,,,,,,,,,,,0,21,21,21,,,,,,,,,,,,,,,,,,,,,,,,,,,,,,,,,,,182.9121094001457,None,182.9121094001457,None,left,1,1.8857478997670114,182.9121094001457,None,1,184.82703609997407,None,,,,,,,,,,,,,,,,,,,,,,,,,,,,,,,,,,,,,,,,,,,,,,,,,,,,,,,,,,,,,,,,,,,41,Male,23,001,2021_Mar_10_1833,cal_abstract,2020.2.4,60.06226066387826,
,Fix2,stimuli/Small/29.jpg,right,,,,,,,,,,,0,22,22,22,,,,,,,,,,,,,,,,,,,,,,,,,,,,,,,,,,,185.61253669997677,None,185.61253669997677,None,right,1,0.7457517003640532,185.61253669997677,None,1,186.37518629990518,None,,,,,,,,,,,,,,,,,,,,,,,,,,,,,,,,,,,,,,,,,,,,,,,,,,,,,,,,,,,,,,,,,,,41,Male,23,001,2021_Mar_10_1833,cal_abstract,2020.2.4,60.06226066387826,
,Fix2,stimuli/Small/51.jpg,right,,,,,,,,,,,0,23,23,23,,,,,,,,,,,,,,,,,,,,,,,,,,,,,,,,,,,187.13737779995427,None,187.13737779995427,None,right,1,1.9400002998299897,187.13737779995427,None,1,189.11000989982858,None,,,,,,,,,,,,,,,,,,,,,,,,,,,,,,,,,,,,,,,,,,,,,,,,,,,,,,,,,,,,,,,,,,,41,Male,23,001,2021_Mar_10_1833,cal_abstract,2020.2.4,60.06226066387826,
,Cond,stimuli/School/24.jpg,left,,,,,,,,,,,0,24,24,24,,,,,,,,,,,,,,,,,,,,,,,,,,,,,,,,,,,189.90311770001426,None,189.90311770001426,None,left,1,4.083659400232136,189.90311770001426,None,1,194.00443430012092,None,,,,,,,,,,,,,,,,,,,,,,,,,,,,,,,,,,,,,,,,,,,,,,,,,,,,,,,,,,,,,,,,,,,41,Male,23,001,2021_Mar_10_1833,cal_abstract,2020.2.4,60.06226066387826,
,Cond,stimuli/School/27.jpg,right,,,,,,,,,,,0,25,25,25,,,,,,,,,,,,,,,,,,,,,,,,,,,,,,,,,,,194.7839680002071,None,194.7839680002071,None,right,1,2.403293199837208,194.7839680002071,None,1,197.2205138998106,None,,,,,,,,,,,,,,,,,,,,,,,,,,,,,,,,,,,,,,,,,,,,,,,,,,,,,,,,,,,,,,,,,,,41,Male,23,001,2021_Mar_10_1833,cal_abstract,2020.2.4,60.06226066387826,
,Fix1,stimuli/Smell/20.jpg,left,,,,,,,,,,,0,26,26,26,,,,,,,,,,,,,,,,,,,,,,,,,,,,,,,,,,,198.00461089983582,None,198.00461089983582,None,left,1,0.9767648996785283,198.00461089983582,None,1,199.00010559987277,None,,,,,,,,,,,,,,,,,,,,,,,,,,,,,,,,,,,,,,,,,,,,,,,,,,,,,,,,,,,,,,,,,,,41,Male,23,001,2021_Mar_10_1833,cal_abstract,2020.2.4,60.06226066387826,
,Fix2,stimuli/Small/23.jpg,right,,,,,,,,,,,0,27,27,27,,,,,,,,,,,,,,,,,,,,,,,,,,,,,,,,,,,199.7762015000917,None,199.7762015000917,None,right,1,1.8583975001238286,199.7762015000917,None,1,201.66262029996142,None,,,,,,,,,,,,,,,,,,,,,,,,,,,,,,,,,,,,,,,,,,,,,,,,,,,,,,,,,,,,,,,,,,,41,Male,23,001,2021_Mar_10_1833,cal_abstract,2020.2.4,60.06226066387826,
,Fix2,stimuli/Small/57.jpg,right,,,,,,,,,,,0,28,28,28,,,,,,,,,,,,,,,,,,,,,,,,,,,,,,,,,,,202.4447905002162,None,202.4447905002162,None,right,1,0.671864400152117,202.4447905002162,None,1,203.14489570027217,None,,,,,,,,,,,,,,,,,,,,,,,,,,,,,,,,,,,,,,,,,,,,,,,,,,,,,,,,,,,,,,,,,,,41,Male,23,001,2021_Mar_10_1833,cal_abstract,2020.2.4,60.06226066387826,
,Cond,stimuli/School/35.jpg,left,,,,,,,,,,,0,29,29,29,,,,,,,,,,,,,,,,,,,,,,,,,,,,,,,,,,,203.94074170012027,None,203.94074170012027,None,left,1,1.8562074000947177,203.94074170012027,None,1,205.82593500008807,None,,,,,,,,,,,,,,,,,,,,,,,,,,,,,,,,,,,,,,,,,,,,,,,,,,,,,,,,,,,,,,,,,,,41,Male,23,001,2021_Mar_10_1833,cal_abstract,2020.2.4,60.06226066387826,
,Fix2,stimuli/Small/18.jpg,right,,,,,,,,,,,0,30,30,30,,,,,,,,,,,,,,,,,,,,,,,,,,,,,,,,,,,206.5846059001051,None,206.5846059001051,None,right,1,2.016495800111443,206.5846059001051,None,1,208.62445530015975,None,,,,,,,,,,,,,,,,,,,,,,,,,,,,,,,,,,,,,,,,,,,,,,,,,,,,,,,,,,,,,,,,,,,41,Male,23,001,2021_Mar_10_1833,cal_abstract,2020.2.4,60.06226066387826,
,Fix2,stimuli/Small/13.jpg,right,,,,,,,,,,,0,31,31,31,,,,,,,,,,,,,,,,,,,,,,,,,,,,,,,,,,,209.39271100005135,None,209.39271100005135,None,right,1,0.675857899710536,209.39271100005135,None,1,210.09093029983342,None,,,,,,,,,,,,,,,,,,,,,,,,,,,,,,,,,,,,,,,,,,,,,,,,,,,,,,,,,,,,,,,,,,,41,Male,23,001,2021_Mar_10_1833,cal_abstract,2020.2.4,60.06226066387826,
,Fix1,stimuli/Smell/16.jpg,left,,,,,,,,,,,0,32,32,32,,,,,,,,,,,,,,,,,,,,,,,,,,,,,,,,,,,210.87317059980705,None,210.87317059980705,None,left,1,1.9147785999812186,210.87317059980705,None,1,212.80701120011508,None,,,,,,,,,,,,,,,,,,,,,,,,,,,,,,,,,,,,,,,,,,,,,,,,,,,,,,,,,,,,,,,,,,,41,Male,23,001,2021_Mar_10_1833,cal_abstract,2020.2.4,60.06226066387826,
,Fix1,stimuli/Smell/34.jpg,left,,,,,,,,,,,0,33,33,33,,,,,,,,,,,,,,,,,,,,,,,,,,,,,,,,,,,213.5825950000435,None,213.5825950000435,None,left,1,1.3856321000494063,213.5825950000435,None,1,214.98570170020685,None,,,,,,,,,,,,,,,,,,,,,,,,,,,,,,,,,,,,,,,,,,,,,,,,,,,,,,,,,,,,,,,,,,,41,Male,23,001,2021_Mar_10_1833,cal_abstract,2020.2.4,60.06226066387826,
,Cond,stimuli/School/14.jpg,right,,,,,,,,,,,0,34,34,34,,,,,,,,,,,,,,,,,,,,,,,,,,,,,,,,,,,215.74921120004728,None,215.74921120004728,None,right,1,1.44038480008021,215.74921120004728,None,1,217.2169180000201,None,,,,,,,,,,,,,,,,,,,,,,,,,,,,,,,,,,,,,,,,,,,,,,,,,,,,,,,,,,,,,,,,,,,41,Male,23,001,2021_Mar_10_1833,cal_abstract,2020.2.4,60.06226066387826,
,Fix2,stimuli/Small/19.jpg,right,,,,,,,,,,,0,35,35,35,,,,,,,,,,,,,,,,,,,,,,,,,,,,,,,,,,,217.97927280003205,None,217.97927280003205,None,right,1,1.4996253000572324,217.97927280003205,None,1,219.49892870010808,None,,,,,,,,,,,,,,,,,,,,,,,,,,,,,,,,,,,,,,,,,,,,,,,,,,,,,,,,,,,,,,,,,,,41,Male,23,001,2021_Mar_10_1833,cal_abstract,2020.2.4,60.06226066387826,
,Fix2,stimuli/Small/16.jpg,right,,,,,,,,,,,0,36,36,36,,,,,,,,,,,,,,,,,,,,,,,,,,,,,,,,,,,220.27706870017573,None,220.27706870017573,None,right,1,0.8231675000861287,220.27706870017573,None,1,221.13280070014298,None,,,,,,,,,,,,,,,,,,,,,,,,,,,,,,,,,,,,,,,,,,,,,,,,,,,,,,,,,,,,,,,,,,,41,Male,23,001,2021_Mar_10_1833,cal_abstract,2020.2.4,60.06226066387826,
,Cond,stimuli/School/2.jpg,left,,,,,,,,,,,0,37,37,37,,,,,,,,,,,,,,,,,,,,,,,,,,,,,,,,,,,221.90582250012085,None,221.90582250012085,None,left,1,4.864759699907154,221.90582250012085,None,1,226.79274469986558,None,,,,,,,,,,,,,,,,,,,,,,,,,,,,,,,,,,,,,,,,,,,,,,,,,,,,,,,,,,,,,,,,,,,41,Male,23,001,2021_Mar_10_1833,cal_abstract,2020.2.4,60.06226066387826,
,Fix1,stimuli/Smell/30.jpg,left,,,,,,,,,,,0,38,38,38,,,,,,,,,,,,,,,,,,,,,,,,,,,,,,,,,,,227.56213570013642,None,227.56213570013642,None,left,1,1.4044127999804914,227.56213570013642,None,1,228.9906660001725,None,,,,,,,,,,,,,,,,,,,,,,,,,,,,,,,,,,,,,,,,,,,,,,,,,,,,,,,,,,,,,,,,,,,41,Male,23,001,2021_Mar_10_1833,cal_abstract,2020.2.4,60.06226066387826,
,Fix2,stimuli/Small/48.jpg,right,,,,,,,,,,,0,39,39,39,,,,,,,,,,,,,,,,,,,,,,,,,,,,,,,,,,,229.75358740007505,None,229.75358740007505,None,right,1,1.7124850996769965,229.75358740007505,None,1,231.49119589990005,None,,,,,,,,,,,,,,,,,,,,,,,,,,,,,,,,,,,,,,,,,,,,,,,,,,,,,,,,,,,,,,,,,,,41,Male,23,001,2021_Mar_10_1833,cal_abstract,2020.2.4,60.06226066387826,
,Fix2,stimuli/Small/39.jpg,right,,,,,,,,,,,0,40,40,40,,,,,,,,,,,,,,,,,,,,,,,,,,,,,,,,,,,232.27304860018194,None,232.27304860018194,None,right,1,2.5617351001128554,232.27304860018194,None,1,234.85261279996485,None,,,,,,,,,,,,,,,,,,,,,,,,,,,,,,,,,,,,,,,,,,,,,,,,,,,,,,,,,,,,,,,,,,,41,Male,23,001,2021_Mar_10_1833,cal_abstract,2020.2.4,60.06226066387826,
,Cond,stimuli/School/28.jpg,left,,,,,,,,,,,0,41,41,41,,,,,,,,,,,,,,,,,,,,,,,,,,,,,,,,,,,235.61837119981647,None,235.61837119981647,None,left,1,1.6568713998422027,235.61837119981647,None,1,237.30061759985983,None,,,,,,,,,,,,,,,,,,,,,,,,,,,,,,,,,,,,,,,,,,,,,,,,,,,,,,,,,,,,,,,,,,,41,Male,23,001,2021_Mar_10_1833,cal_abstract,2020.2.4,60.06226066387826,
,Fix1,stimuli/Smell/57.jpg,left,,,,,,,,,,,0,42,42,42,,,,,,,,,,,,,,,,,,,,,,,,,,,,,,,,,,,238.08010140014812,None,238.08010140014812,None,left,1,1.01910819998011,238.08010140014812,None,1,239.11625199997798,None,,,,,,,,,,,,,,,,,,,,,,,,,,,,,,,,,,,,,,,,,,,,,,,,,,,,,,,,,,,,,,,,,,,41,Male,23,001,2021_Mar_10_1833,cal_abstract,2020.2.4,60.06226066387826,
,Fix1,stimuli/Smell/29.jpg,left,,,,,,,,,,,0,43,43,43,,,,,,,,,,,,,,,,,,,,,,,,,,,,,,,,,,,239.8948547001928,None,239.8948547001928,None,right,0,1.3098198003135622,239.8948547001928,None,0,241.23892679996789,None,,,,,,,,,,,,,,,,,,,,,,,,,,,,,,,,,,,,,,,,,,,,,,,,,,,,,,,,,,,,,,,,,,,41,Male,23,001,2021_Mar_10_1833,cal_abstract,2020.2.4,60.06226066387826,
,Fix2,stimuli/Small/14.jpg,right,,,,,,,,,,,0,44,44,44,,,,,,,,,,,,,,,,,,,,,,,,,,,,,,,,,,,242.0172673999332,None,242.0172673999332,None,right,1,2.049999600276351,242.0172673999332,None,1,244.10325569985434,None,,,,,,,,,,,,,,,,,,,,,,,,,,,,,,,,,,,,,,,,,,,,,,,,,,,,,,,,,,,,,,,,,,,41,Male,23,001,2021_Mar_10_1833,cal_abstract,2020.2.4,60.06226066387826,
,Fix1,stimuli/Smell/52.jpg,left,,,,,,,,,,,0,45,45,45,,,,,,,,,,,,,,,,,,,,,,,,,,,,,,,,,,,244.90317119983956,None,244.90317119983956,None,left,1,1.1891854000277817,244.90317119983956,None,1,246.11031039990485,None,,,,,,,,,,,,,,,,,,,,,,,,,,,,,,,,,,,,,,,,,,,,,,,,,,,,,,,,,,,,,,,,,,,41,Male,23,001,2021_Mar_10_1833,cal_abstract,2020.2.4,60.06226066387826,
,Fix2,stimuli/Small/1.jpg,right,,,,,,,,,,,0,46,46,46,,,,,,,,,,,,,,,,,,,,,,,,,,,,,,,,,,,246.88608840014786,None,246.88608840014786,None,right,1,1.2656314000487328,246.88608840014786,None,1,248.17491699988022,None,,,,,,,,,,,,,,,,,,,,,,,,,,,,,,,,,,,,,,,,,,,,,,,,,,,,,,,,,,,,,,,,,,,41,Male,23,001,2021_Mar_10_1833,cal_abstract,2020.2.4,60.06226066387826,
,Cond,stimuli/School/39.jpg,left,,,,,,,,,,,0,47,47,47,,,,,,,,,,,,,,,,,,,,,,,,,,,,,,,,,,,248.9496173998341,None,248.9496173998341,None,left,1,1.8111856998875737,248.9496173998341,None,1,250.78943639993668,None,,,,,,,,,,,,,,,,,,,,,,,,,,,,,,,,,,,,,,,,,,,,,,,,,,,,,,,,,,,,,,,,,,,41,Male,23,001,2021_Mar_10_1833,cal_abstract,2020.2.4,60.06226066387826,
,Fix1,stimuli/Smell/31.jpg,left,,,,,,,,,,,0,48,48,48,,,,,,,,,,,,,,,,,,,,,,,,,,,,,,,,,,,251.55395170021802,None,251.55395170021802,None,left,1,2.2617760999128222,251.55395170021802,None,1,253.8371386998333,None,,,,,,,,,,,,,,,,,,,,,,,,,,,,,,,,,,,,,,,,,,,,,,,,,,,,,,,,,,,,,,,,,,,41,Male,23,001,2021_Mar_10_1833,cal_abstract,2020.2.4,60.06226066387826,
,Cond,stimuli/School/36.jpg,right,,,,,,,,,,,0,49,49,49,,,,,,,,,,,,,,,,,,,,,,,,,,,,,,,,,,,254.60097040003166,None,254.60097040003166,None,left,0,2.118471199646592,254.60097040003166,None,0,256.7564905998297,None,,,,,,,,,,,,,,,,,,,,,,,,,,,,,,,,,,,,,,,,,,,,,,,,,,,,,,,,,,,,,,,,,,,41,Male,23,001,2021_Mar_10_1833,cal_abstract,2020.2.4,60.06226066387826,
,Cond,stimuli/School/12.jpg,left,,,,,,,,,,,0,50,50,50,,,,,,,,,,,,,,,,,,,,,,,,,,,,,,,,,,,257.52695300010964,None,257.52695300010964,None,right,0,5.3300189999863505,257.52695300010964,None,0,262.8789331000298,None,,,,,,,,,,,,,,,,,,,,,,,,,,,,,,,,,,,,,,,,,,,,,,,,,,,,,,,,,,,,,,,,,,,41,Male,23,001,2021_Mar_10_1833,cal_abstract,2020.2.4,60.06226066387826,
,Fix2,stimuli/Small/31.JPG,right,,,,,,,,,,,0,51,51,51,,,,,,,,,,,,,,,,,,,,,,,,,,,,,,,,,,,263.6397425001487,None,263.6397425001487,None,right,1,2.2671006000600755,263.6397425001487,None,1,265.9305147002451,None,,,,,,,,,,,,,,,,,,,,,,,,,,,,,,,,,,,,,,,,,,,,,,,,,,,,,,,,,,,,,,,,,,,41,Male,23,001,2021_Mar_10_1833,cal_abstract,2020.2.4,60.06226066387826,
,Cond,stimuli/School/54.jpg,left,,,,,,,,,,,0,52,52,52,,,,,,,,,,,,,,,,,,,,,,,,,,,,,,,,,,,266.71304810000584,None,266.71304810000584,None,left,1,1.317363899666816,266.71304810000584,None,1,268.0593409999274,None,,,,,,,,,,,,,,,,,,,,,,,,,,,,,,,,,,,,,,,,,,,,,,,,,,,,,,,,,,,,,,,,,,,41,Male,23,001,2021_Mar_10_1833,cal_abstract,2020.2.4,60.06226066387826,
,Fix2,stimuli/Small/9.jpg,right,,,,,,,,,,,0,53,53,53,,,,,,,,,,,,,,,,,,,,,,,,,,,,,,,,,,,268.84489369997755,None,268.84489369997755,None,right,1,1.8998637003824115,268.84489369997755,None,1,270.773034799844,None,,,,,,,,,,,,,,,,,,,,,,,,,,,,,,,,,,,,,,,,,,,,,,,,,,,,,,,,,,,,,,,,,,,41,Male,23,001,2021_Mar_10_1833,cal_abstract,2020.2.4,60.06226066387826,
,Fix1,stimuli/Smell/22.jpg,left,,,,,,,,,,,0,54,54,54,,,,,,,,,,,,,,,,,,,,,,,,,,,,,,,,,,,271.53665990009904,None,271.53665990009904,None,left,1,1.0705120000056922,271.53665990009904,None,1,272.63747500022873,None,,,,,,,,,,,,,,,,,,,,,,,,,,,,,,,,,,,,,,,,,,,,,,,,,,,,,,,,,,,,,,,,,,,41,Male,23,001,2021_Mar_10_1833,cal_abstract,2020.2.4,60.06226066387826,
,Cond,stimuli/School/23.jpg,right,,,,,,,,,,,0,55,55,55,,,,,,,,,,,,,,,,,,,,,,,,,,,,,,,,,,,273.406665999908,None,273.406665999908,None,right,1,2.997453599702567,273.406665999908,None,1,276.43672990007326,None,,,,,,,,,,,,,,,,,,,,,,,,,,,,,,,,,,,,,,,,,,,,,,,,,,,,,,,,,,,,,,,,,,,41,Male,23,001,2021_Mar_10_1833,cal_abstract,2020.2.4,60.06226066387826,
,Fix2,stimuli/Small/22.jpg,right,,,,,,,,,,,0,56,56,56,,,,,,,,,,,,,,,,,,,,,,,,,,,,,,,,,,,277.23159050010145,None,277.23159050010145,None,right,1,1.8505526999942958,277.23159050010145,None,1,279.09965560026467,None,,,,,,,,,,,,,,,,,,,,,,,,,,,,,,,,,,,,,,,,,,,,,,,,,,,,,,,,,,,,,,,,,,,41,Male,23,001,2021_Mar_10_1833,cal_abstract,2020.2.4,60.06226066387826,
,Cond,stimuli/School/49.jpg,left,,,,,,,,,,,0,57,57,57,,,,,,,,,,,,,,,,,,,,,,,,,,,,,,,,,,,279.8632578998804,None,279.8632578998804,None,left,1,6.266220999881625,279.8632578998804,None,1,286.1600617002696,None,,,,,,,,,,,,,,,,,,,,,,,,,,,,,,,,,,,,,,,,,,,,,,,,,,,,,,,,,,,,,,,,,,,41,Male,23,001,2021_Mar_10_1833,cal_abstract,2020.2.4,60.06226066387826,
,Cond,stimuli/School/50.jpg,right,,,,,,,,,,,0,58,58,58,,,,,,,,,,,,,,,,,,,,,,,,,,,,,,,,,,,286.94515949999914,None,286.94515949999914,None,right,1,2.257929400075227,286.94515949999914,None,1,289.2241771998815,None,,,,,,,,,,,,,,,,,,,,,,,,,,,,,,,,,,,,,,,,,,,,,,,,,,,,,,,,,,,,,,,,,,,41,Male,23,001,2021_Mar_10_1833,cal_abstract,2020.2.4,60.06226066387826,
,Cond,stimuli/School/26.jpg,left,,,,,,,,,,,0,59,59,59,,,,,,,,,,,,,,,,,,,,,,,,,,,,,,,,,,,290.01217320002615,None,290.01217320002615,None,left,1,3.0365173001773655,290.01217320002615,None,1,293.0708857001737,None,,,,,,,,,,,,,,,,,,,,,,,,,,,,,,,,,,,,,,,,,,,,,,,,,,,,,,,,,,,,,,,,,,,41,Male,23,001,2021_Mar_10_1833,cal_abstract,2020.2.4,60.06226066387826,
,Cond,stimuli/School/34.jpg,right,,,,,,,,,,,0,60,60,60,,,,,,,,,,,,,,,,,,,,,,,,,,,,,,,,,,,293.83571670018137,None,293.83571670018137,None,right,1,1.9578780997544527,293.83571670018137,None,1,295.8216357999481,None,,,,,,,,,,,,,,,,,,,,,,,,,,,,,,,,,,,,,,,,,,,,,,,,,,,,,,,,,,,,,,,,,,,41,Male,23,001,2021_Mar_10_1833,cal_abstract,2020.2.4,60.06226066387826,
,Cond,stimuli/School/58.jpg,left,,,,,,,,,,,0,61,61,61,,,,,,,,,,,,,,,,,,,,,,,,,,,,,,,,,,,296.6125698001124,None,296.6125698001124,None,left,1,1.9816518002189696,296.6125698001124,None,1,298.6197425001301,None,,,,,,,,,,,,,,,,,,,,,,,,,,,,,,,,,,,,,,,,,,,,,,,,,,,,,,,,,,,,,,,,,,,41,Male,23,001,2021_Mar_10_1833,cal_abstract,2020.2.4,60.06226066387826,
,Fix2,stimuli/Small/11.jpg,right,,,,,,,,,,,0,62,62,62,,,,,,,,,,,,,,,,,,,,,,,,,,,,,,,,,,,299.3970612999983,None,299.3970612999983,None,right,1,1.9591491003520787,299.3970612999983,None,1,301.38115359982476,None,,,,,,,,,,,,,,,,,,,,,,,,,,,,,,,,,,,,,,,,,,,,,,,,,,,,,,,,,,,,,,,,,,,41,Male,23,001,2021_Mar_10_1833,cal_abstract,2020.2.4,60.06226066387826,
,Cond,stimuli/School/1.jpg,left,,,,,,,,,,,0,63,63,63,,,,,,,,,,,,,,,,,,,,,,,,,,,,,,,,,,,302.14828430023044,None,302.14828430023044,None,right,0,2.132950599770993,302.14828430023044,None,0,304.3194013000466,None,,,,,,,,,,,,,,,,,,,,,,,,,,,,,,,,,,,,,,,,,,,,,,,,,,,,,,,,,,,,,,,,,,,41,Male,23,001,2021_Mar_10_1833,cal_abstract,2020.2.4,60.06226066387826,
,Fix1,stimuli/Smell/41.jpg,left,,,,,,,,,,,0,64,64,64,,,,,,,,,,,,,,,,,,,,,,,,,,,,,,,,,,,305.0857667000964,None,305.0857667000964,None,left,1,9.209609900135547,305.0857667000964,None,1,314.3222225001082,None,,,,,,,,,,,,,,,,,,,,,,,,,,,,,,,,,,,,,,,,,,,,,,,,,,,,,,,,,,,,,,,,,,,41,Male,23,001,2021_Mar_10_1833,cal_abstract,2020.2.4,60.06226066387826,
,Fix2,stimuli/Small/54.jpg,right,,,,,,,,,,,0,65,65,65,,,,,,,,,,,,,,,,,,,,,,,,,,,,,,,,,,,315.109361700248,None,315.109361700248,None,right,1,2.757252600044012,315.109361700248,None,1,317.8839944000356,None,,,,,,,,,,,,,,,,,,,,,,,,,,,,,,,,,,,,,,,,,,,,,,,,,,,,,,,,,,,,,,,,,,,41,Male,23,001,2021_Mar_10_1833,cal_abstract,2020.2.4,60.06226066387826,
,Fix1,stimuli/Smell/36.jpg,left,,,,,,,,,,,0,66,66,66,,,,,,,,,,,,,,,,,,,,,,,,,,,,,,,,,,,318.66909869993106,None,318.66909869993106,None,left,1,1.1959672002121806,318.66909869993106,None,1,319.8821601001546,None,,,,,,,,,,,,,,,,,,,,,,,,,,,,,,,,,,,,,,,,,,,,,,,,,,,,,,,,,,,,,,,,,,,41,Male,23,001,2021_Mar_10_1833,cal_abstract,2020.2.4,60.06226066387826,
,Fix1,stimuli/Smell/8.jpg,left,,,,,,,,,,,0,67,67,67,,,,,,,,,,,,,,,,,,,,,,,,,,,,,,,,,,,320.65678940014914,None,320.65678940014914,None,left,1,2.5519528998993337,320.65678940014914,None,1,323.2288771001622,None,,,,,,,,,,,,,,,,,,,,,,,,,,,,,,,,,,,,,,,,,,,,,,,,,,,,,,,,,,,,,,,,,,,41,Male,23,001,2021_Mar_10_1833,cal_abstract,2020.2.4,60.06226066387826,
,Fix1,stimuli/Smell/48.jpg,left,,,,,,,,,,,0,68,68,68,,,,,,,,,,,,,,,,,,,,,,,,,,,,,,,,,,,323.99111190019175,None,323.99111190019175,None,left,1,7.285753199830651,323.99111190019175,None,1,331.308044699952,None,,,,,,,,,,,,,,,,,,,,,,,,,,,,,,,,,,,,,,,,,,,,,,,,,,,,,,,,,,,,,,,,,,,41,Male,23,001,2021_Mar_10_1833,cal_abstract,2020.2.4,60.06226066387826,
,Fix2,stimuli/Small/35.jpg,right,,,,,,,,,,,0,69,69,69,,,,,,,,,,,,,,,,,,,,,,,,,,,,,,,,,,,332.09077330026776,None,332.09077330026776,None,right,1,2.65035630017519,332.09077330026776,None,1,334.77074189996347,None,,,,,,,,,,,,,,,,,,,,,,,,,,,,,,,,,,,,,,,,,,,,,,,,,,,,,,,,,,,,,,,,,,,41,Male,23,001,2021_Mar_10_1833,cal_abstract,2020.2.4,60.06226066387826,
,Fix2,stimuli/Small/32.jpg,right,,,,,,,,,,,0,70,70,70,,,,,,,,,,,,,,,,,,,,,,,,,,,,,,,,,,,335.56595600023866,None,335.56595600023866,None,left,0,3.6445023003034294,335.56595600023866,None,0,339.2383511001244,None,,,,,,,,,,,,,,,,,,,,,,,,,,,,,,,,,,,,,,,,,,,,,,,,,,,,,,,,,,,,,,,,,,,41,Male,23,001,2021_Mar_10_1833,cal_abstract,2020.2.4,60.06226066387826,
,Fix2,stimuli/Small/6.jpg,right,,,,,,,,,,,0,71,71,71,,,,,,,,,,,,,,,,,,,,,,,,,,,,,,,,,,,340.01503890007734,None,340.01503890007734,None,right,1,3.180571800097823,340.01503890007734,None,1,343.22123409993947,None,,,,,,,,,,,,,,,,,,,,,,,,,,,,,,,,,,,,,,,,,,,,,,,,,,,,,,,,,,,,,,,,,,,41,Male,23,001,2021_Mar_10_1833,cal_abstract,2020.2.4,60.06226066387826,
,Fix2,stimuli/Small/52.jpg,right,,,,,,,,,,,0,72,72,72,,,,,,,,,,,,,,,,,,,,,,,,,,,,,,,,,,,343.9933782001026,None,343.9933782001026,None,right,1,0.64785740012303,343.9933782001026,None,1,344.6643982999958,None,,,,,,,,,,,,,,,,,,,,,,,,,,,,,,,,,,,,,,,,,,,,,,,,,,,,,,,,,,,,,,,,,,,41,Male,23,001,2021_Mar_10_1833,cal_abstract,2020.2.4,60.06226066387826,
,Cond,stimuli/School/9.jpg,left,,,,,,,,,,,0,73,73,73,,,,,,,,,,,,,,,,,,,,,,,,,,,,,,,,,,,345.45852740015835,None,345.45852740015835,None,right,0,2.633961800020188,345.45852740015835,None,0,348.1142760999501,None,,,,,,,,,,,,,,,,,,,,,,,,,,,,,,,,,,,,,,,,,,,,,,,,,,,,,,,,,,,,,,,,,,,41,Male,23,001,2021_Mar_10_1833,cal_abstract,2020.2.4,60.06226066387826,
,Cond,stimuli/School/48.jpg,right,,,,,,,,,,,0,74,74,74,,,,,,,,,,,,,,,,,,,,,,,,,,,,,,,,,,,348.88851060019806,None,348.88851060019806,None,left,0,1.818302399944514,348.88851060019806,None,0,350.72557759983465,None,,,,,,,,,,,,,,,,,,,,,,,,,,,,,,,,,,,,,,,,,,,,,,,,,,,,,,,,,,,,,,,,,,,41,Male,23,001,2021_Mar_10_1833,cal_abstract,2020.2.4,60.06226066387826,
,Cond,stimuli/School/43.jpg,left,,,,,,,,,,,0,75,75,75,,,,,,,,,,,,,,,,,,,,,,,,,,,,,,,,,,,351.511409800034,None,351.511409800034,None,left,1,1.4272513003088534,351.511409800034,None,1,352.9581384002231,None,,,,,,,,,,,,,,,,,,,,,,,,,,,,,,,,,,,,,,,,,,,,,,,,,,,,,,,,,,,,,,,,,,,41,Male,23,001,2021_Mar_10_1833,cal_abstract,2020.2.4,60.06226066387826,
,Fix1,stimuli/Smell/49.jpg,left,,,,,,,,,,,0,76,76,76,,,,,,,,,,,,,,,,,,,,,,,,,,,,,,,,,,,353.7411495000124,None,353.7411495000124,None,left,1,1.2077445001341403,353.7411495000124,None,1,354.97000320022926,None,,,,,,,,,,,,,,,,,,,,,,,,,,,,,,,,,,,,,,,,,,,,,,,,,,,,,,,,,,,,,,,,,,,41,Male,23,001,2021_Mar_10_1833,cal_abstract,2020.2.4,60.06226066387826,
,Cond,stimuli/School/25.jpg,right,,,,,,,,,,,0,77,77,77,,,,,,,,,,,,,,,,,,,,,,,,,,,,,,,,,,,355.74451360013336,None,355.74451360013336,None,right,1,1.3455194002017379,355.74451360013336,None,1,357.11839100020006,None,,,,,,,,,,,,,,,,,,,,,,,,,,,,,,,,,,,,,,,,,,,,,,,,,,,,,,,,,,,,,,,,,,,41,Male,23,001,2021_Mar_10_1833,cal_abstract,2020.2.4,60.06226066387826,
,Cond,stimuli/School/45.jpg,left,,,,,,,,,,,0,78,78,78,,,,,,,,,,,,,,,,,,,,,,,,,,,,,,,,,,,357.88265800010413,None,357.88265800010413,None,left,1,1.051212000194937,357.88265800010413,None,1,358.949825800024,None,,,,,,,,,,,,,,,,,,,,,,,,,,,,,,,,,,,,,,,,,,,,,,,,,,,,,,,,,,,,,,,,,,,41,Male,23,001,2021_Mar_10_1833,cal_abstract,2020.2.4,60.06226066387826,
,Fix1,stimuli/Smell/43.jpg,left,,,,,,,,,,,0,79,79,79,,,,,,,,,,,,,,,,,,,,,,,,,,,,,,,,,,,359.74675130005926,None,359.74675130005926,None,left,1,1.2822533999569714,359.74675130005926,None,1,361.05106520000845,None,,,,,,,,,,,,,,,,,,,,,,,,,,,,,,,,,,,,,,,,,,,,,,,,,,,,,,,,,,,,,,,,,,,41,Male,23,001,2021_Mar_10_1833,cal_abstract,2020.2.4,60.06226066387826,
,Fix2,stimuli/Small/56.jpg,right,,,,,,,,,,,0,80,80,80,,,,,,,,,,,,,,,,,,,,,,,,,,,,,,,,,,,361.8439850001596,None,361.8439850001596,None,left,0,1.7847957001067698,361.8439850001596,None,0,363.6558289998211,None,,,,,,,,,,,,,,,,,,,,,,,,,,,,,,,,,,,,,,,,,,,,,,,,,,,,,,,,,,,,,,,,,,,41,Male,23,001,2021_Mar_10_1833,cal_abstract,2020.2.4,60.06226066387826,
,Fix2,stimuli/Small/27.jpg,right,,,,,,,,,,,0,81,81,81,,,,,,,,,,,,,,,,,,,,,,,,,,,,,,,,,,,364.42365569993854,None,364.42365569993854,None,right,1,4.123390399850905,364.42365569993854,None,1,368.579222000204,None,,,,,,,,,,,,,,,,,,,,,,,,,,,,,,,,,,,,,,,,,,,,,,,,,,,,,,,,,,,,,,,,,,,41,Male,23,001,2021_Mar_10_1833,cal_abstract,2020.2.4,60.06226066387826,
,Fix1,stimuli/Smell/4.jpg,left,,,,,,,,,,,0,82,82,82,,,,,,,,,,,,,,,,,,,,,,,,,,,,,,,,,,,369.3575992998667,None,369.3575992998667,None,left,1,1.0755786001682281,369.3575992998667,None,1,370.45754949981347,None,,,,,,,,,,,,,,,,,,,,,,,,,,,,,,,,,,,,,,,,,,,,,,,,,,,,,,,,,,,,,,,,,,,41,Male,23,001,2021_Mar_10_1833,cal_abstract,2020.2.4,60.06226066387826,
,Fix2,stimuli/Small/42.jpg,right,,,,,,,,,,,0,83,83,83,,,,,,,,,,,,,,,,,,,,,,,,,,,,,,,,,,,371.234180000145,None,371.234180000145,None,right,1,5.622610699851066,371.234180000145,None,1,376.885385800153,None,,,,,,,,,,,,,,,,,,,,,,,,,,,,,,,,,,,,,,,,,,,,,,,,,,,,,,,,,,,,,,,,,,,41,Male,23,001,2021_Mar_10_1833,cal_abstract,2020.2.4,60.06226066387826,
,Cond,stimuli/School/13.jpg,left,,,,,,,,,,,0,84,84,84,,,,,,,,,,,,,,,,,,,,,,,,,,,,,,,,,,,377.6494630998932,None,377.6494630998932,None,left,1,0.901093500200659,377.6494630998932,None,1,378.5703806998208,None,,,,,,,,,,,,,,,,,,,,,,,,,,,,,,,,,,,,,,,,,,,,,,,,,,,,,,,,,,,,,,,,,,,41,Male,23,001,2021_Mar_10_1833,cal_abstract,2020.2.4,60.06226066387826,
,Fix1,stimuli/Smell/50.jpg,left,,,,,,,,,,,0,85,85,85,,,,,,,,,,,,,,,,,,,,,,,,,,,,,,,,,,,379.35973059991375,None,379.35973059991375,None,left,1,3.188509600237012,379.35973059991375,None,1,382.5682616000995,None,,,,,,,,,,,,,,,,,,,,,,,,,,,,,,,,,,,,,,,,,,,,,,,,,,,,,,,,,,,,,,,,,,,41,Male,23,001,2021_Mar_10_1833,cal_abstract,2020.2.4,60.06226066387826,
,Cond,stimuli/School/6.jpg,right,,,,,,,,,,,0,86,86,86,,,,,,,,,,,,,,,,,,,,,,,,,,,,,,,,,,,383.35589870018885,None,383.35589870018885,None,right,1,0.9859589003026485,383.35589870018885,None,1,384.36542329983786,None,,,,,,,,,,,,,,,,,,,,,,,,,,,,,,,,,,,,,,,,,,,,,,,,,,,,,,,,,,,,,,,,,,,41,Male,23,001,2021_Mar_10_1833,cal_abstract,2020.2.4,60.06226066387826,
,Fix1,stimuli/Smell/17.jpg,left,,,,,,,,,,,0,87,87,87,,,,,,,,,,,,,,,,,,,,,,,,,,,,,,,,,,,385.1402492001653,None,385.1402492001653,None,left,1,1.2803215999156237,385.1402492001653,None,1,386.4473008001223,None,,,,,,,,,,,,,,,,,,,,,,,,,,,,,,,,,,,,,,,,,,,,,,,,,,,,,,,,,,,,,,,,,,,41,Male,23,001,2021_Mar_10_1833,cal_abstract,2020.2.4,60.06226066387826,
,Cond,stimuli/School/46.jpg,right,,,,,,,,,,,0,88,88,88,,,,,,,,,,,,,,,,,,,,,,,,,,,,,,,,,,,387.2520610000938,None,387.2520610000938,None,right,1,2.347632300108671,387.2520610000938,None,1,389.6250104000792,None,,,,,,,,,,,,,,,,,,,,,,,,,,,,,,,,,,,,,,,,,,,,,,,,,,,,,,,,,,,,,,,,,,,41,Male,23,001,2021_Mar_10_1833,cal_abstract,2020.2.4,60.06226066387826,
,Fix2,stimuli/Small/47.jpg,right,,,,,,,,,,,0,89,89,89,,,,,,,,,,,,,,,,,,,,,,,,,,,,,,,,,,,390.3866774998605,None,390.3866774998605,None,right,1,3.07019399991259,390.3866774998605,None,1,393.48838050011545,None,,,,,,,,,,,,,,,,,,,,,,,,,,,,,,,,,,,,,,,,,,,,,,,,,,,,,,,,,,,,,,,,,,,41,Male,23,001,2021_Mar_10_1833,cal_abstract,2020.2.4,60.06226066387826,
,Fix2,stimuli/Small/3.jpg,right,,,,,,,,,,,0,90,90,90,,,,,,,,,,,,,,,,,,,,,,,,,,,,,,,,,,,394.2519403002225,None,394.2519403002225,None,left,0,1.1191471000202,394.2519403002225,None,0,395.39203719981015,None,,,,,,,,,,,,,,,,,,,,,,,,,,,,,,,,,,,,,,,,,,,,,,,,,,,,,,,,,,,,,,,,,,,41,Male,23,001,2021_Mar_10_1833,cal_abstract,2020.2.4,60.06226066387826,
,Cond,stimuli/School/53.jpg,left,,,,,,,,,,,0,91,91,91,,,,,,,,,,,,,,,,,,,,,,,,,,,,,,,,,,,396.17077580001205,None,396.17077580001205,None,left,1,2.9188896999694407,396.17077580001205,None,1,399.12087940005586,None,,,,,,,,,,,,,,,,,,,,,,,,,,,,,,,,,,,,,,,,,,,,,,,,,,,,,,,,,,,,,,,,,,,41,Male,23,001,2021_Mar_10_1833,cal_abstract,2020.2.4,60.06226066387826,
,Cond,stimuli/School/31.jpg,right,,,,,,,,,,,0,92,92,92,,,,,,,,,,,,,,,,,,,,,,,,,,,,,,,,,,,399.9261389002204,None,399.9261389002204,None,right,1,1.5488847997039557,399.9261389002204,None,1,401.50173849985003,None,,,,,,,,,,,,,,,,,,,,,,,,,,,,,,,,,,,,,,,,,,,,,,,,,,,,,,,,,,,,,,,,,,,41,Male,23,001,2021_Mar_10_1833,cal_abstract,2020.2.4,60.06226066387826,
,Cond,stimuli/School/8.jpg,left,,,,,,,,,,,0,93,93,93,,,,,,,,,,,,,,,,,,,,,,,,,,,,,,,,,,,402.2807398000732,None,402.2807398000732,None,left,1,2.8354066000320017,402.2807398000732,None,1,405.146044800058,None,,,,,,,,,,,,,,,,,,,,,,,,,,,,,,,,,,,,,,,,,,,,,,,,,,,,,,,,,,,,,,,,,,,41,Male,23,001,2021_Mar_10_1833,cal_abstract,2020.2.4,60.06226066387826,
,Cond,stimuli/School/18.jpg,right,,,,,,,,,,,0,94,94,94,,,,,,,,,,,,,,,,,,,,,,,,,,,,,,,,,,,405.9316866998561,None,405.9316866998561,None,right,1,2.151474400423467,405.9316866998561,None,1,408.10991410026327,None,,,,,,,,,,,,,,,,,,,,,,,,,,,,,,,,,,,,,,,,,,,,,,,,,,,,,,,,,,,,,,,,,,,41,Male,23,001,2021_Mar_10_1833,cal_abstract,2020.2.4,60.06226066387826,
,Fix1,stimuli/Smell/35.jpg,left,,,,,,,,,,,0,95,95,95,,,,,,,,,,,,,,,,,,,,,,,,,,,,,,,,,,,408.8736217999831,None,408.8736217999831,None,left,1,3.0099093997851014,408.8736217999831,None,1,411.9093359000981,None,,,,,,,,,,,,,,,,,,,,,,,,,,,,,,,,,,,,,,,,,,,,,,,,,,,,,,,,,,,,,,,,,,,41,Male,23,001,2021_Mar_10_1833,cal_abstract,2020.2.4,60.06226066387826,
,Fix1,stimuli/Smell/59.jpg,left,,,,,,,,,,,0,96,96,96,,,,,,,,,,,,,,,,,,,,,,,,,,,,,,,,,,,412.70059779984877,None,412.70059779984877,None,left,1,8.979583600070328,412.70059779984877,None,1,421.69920550007373,None,,,,,,,,,,,,,,,,,,,,,,,,,,,,,,,,,,,,,,,,,,,,,,,,,,,,,,,,,,,,,,,,,,,41,Male,23,001,2021_Mar_10_1833,cal_abstract,2020.2.4,60.06226066387826,
,Fix1,stimuli/Smell/21.jpg,left,,,,,,,,,,,0,97,97,97,,,,,,,,,,,,,,,,,,,,,,,,,,,,,,,,,,,422.46399630000815,None,422.46399630000815,None,left,1,0.7579365000128746,422.46399630000815,None,1,423.2504078000784,None,,,,,,,,,,,,,,,,,,,,,,,,,,,,,,,,,,,,,,,,,,,,,,,,,,,,,,,,,,,,,,,,,,,41,Male,23,001,2021_Mar_10_1833,cal_abstract,2020.2.4,60.06226066387826,
,Fix1,stimuli/Smell/33.jpg,left,,,,,,,,,,,0,98,98,98,,,,,,,,,,,,,,,,,,,,,,,,,,,,,,,,,,,424.0548697002232,None,424.0548697002232,None,left,1,0.9044226002879441,424.0548697002232,None,1,424.9821004001424,None,,,,,,,,,,,,,,,,,,,,,,,,,,,,,,,,,,,,,,,,,,,,,,,,,,,,,,,,,,,,,,,,,,,41,Male,23,001,2021_Mar_10_1833,cal_abstract,2020.2.4,60.06226066387826,
,Fix1,stimuli/Smell/10.jpg,left,,,,,,,,,,,0,99,99,99,,,,,,,,,,,,,,,,,,,,,,,,,,,,,,,,,,,425.77185489982367,None,425.77185489982367,None,left,1,1.518074399791658,425.77185489982367,None,1,427.310639699921,None,,,,,,,,,,,,,,,,,,,,,,,,,,,,,,,,,,,,,,,,,,,,,,,,,,,,,,,,,,,,,,,,,,,41,Male,23,001,2021_Mar_10_1833,cal_abstract,2020.2.4,60.06226066387826,
,Cond,stimuli/School/42.jpg,right,,,,,,,,,,,0,100,100,100,,,,,,,,,,,,,,,,,,,,,,,,,,,,,,,,,,,428.07828530017287,None,428.07828530017287,None,right,1,1.9578136997297406,428.07828530017287,None,1,430.06199639989063,None,,,,,,,,,,,,,,,,,,,,,,,,,,,,,,,,,,,,,,,,,,,,,,,,,,,,,,,,,,,,,,,,,,,41,Male,23,001,2021_Mar_10_1833,cal_abstract,2020.2.4,60.06226066387826,
,Fix2,stimuli/Small/46.jpg,right,,,,,,,,,,,0,101,101,101,,,,,,,,,,,,,,,,,,,,,,,,,,,,,,,,,,,430.8390395999886,None,430.8390395999886,None,right,1,1.169321299996227,430.8390395999886,None,1,432.02608680026606,None,,,,,,,,,,,,,,,,,,,,,,,,,,,,,,,,,,,,,,,,,,,,,,,,,,,,,,,,,,,,,,,,,,,41,Male,23,001,2021_Mar_10_1833,cal_abstract,2020.2.4,60.06226066387826,
,Fix2,stimuli/Small/37.jpg,right,,,,,,,,,,,0,102,102,102,,,,,,,,,,,,,,,,,,,,,,,,,,,,,,,,,,,432.8111721002497,None,432.8111721002497,None,left,0,1.761348099913448,432.8111721002497,None,0,434.59418779984117,None,,,,,,,,,,,,,,,,,,,,,,,,,,,,,,,,,,,,,,,,,,,,,,,,,,,,,,,,,,,,,,,,,,,41,Male,23,001,2021_Mar_10_1833,cal_abstract,2020.2.4,60.06226066387826,
,Fix1,stimuli/Smell/2.jpg,left,,,,,,,,,,,0,103,103,103,,,,,,,,,,,,,,,,,,,,,,,,,,,,,,,,,,,435.3580646002665,None,435.3580646002665,None,left,1,2.8106371997855604,435.3580646002665,None,1,438.1868401998654,None,,,,,,,,,,,,,,,,,,,,,,,,,,,,,,,,,,,,,,,,,,,,,,,,,,,,,,,,,,,,,,,,,,,41,Male,23,001,2021_Mar_10_1833,cal_abstract,2020.2.4,60.06226066387826,
,Fix2,stimuli/Small/21.jpg,right,,,,,,,,,,,0,104,104,104,,,,,,,,,,,,,,,,,,,,,,,,,,,,,,,,,,,438.962675599847,None,438.962675599847,None,right,1,1.7998834000900388,438.962675599847,None,1,440.783455000259,None,,,,,,,,,,,,,,,,,,,,,,,,,,,,,,,,,,,,,,,,,,,,,,,,,,,,,,,,,,,,,,,,,,,41,Male,23,001,2021_Mar_10_1833,cal_abstract,2020.2.4,60.06226066387826,
,Fix2,stimuli/Small/44.jpg,right,,,,,,,,,,,0,105,105,105,,,,,,,,,,,,,,,,,,,,,,,,,,,,,,,,,,,441.5557054001838,None,441.5557054001838,None,left,0,1.3865720997564495,441.5557054001838,None,0,442.96850620023906,None,,,,,,,,,,,,,,,,,,,,,,,,,,,,,,,,,,,,,,,,,,,,,,,,,,,,,,,,,,,,,,,,,,,41,Male,23,001,2021_Mar_10_1833,cal_abstract,2020.2.4,60.06226066387826,
,Cond,stimuli/School/29.jpg,left,,,,,,,,,,,0,106,106,106,,,,,,,,,,,,,,,,,,,,,,,,,,,,,,,,,,,443.7460572998971,None,443.7460572998971,None,left,1,3.0173224001191556,443.7460572998971,None,1,446.7939603999257,None,,,,,,,,,,,,,,,,,,,,,,,,,,,,,,,,,,,,,,,,,,,,,,,,,,,,,,,,,,,,,,,,,,,41,Male,23,001,2021_Mar_10_1833,cal_abstract,2020.2.4,60.06226066387826,
,Cond,stimuli/School/20.jpg,right,,,,,,,,,,,0,107,107,107,,,,,,,,,,,,,,,,,,,,,,,,,,,,,,,,,,,447.55769800022244,None,447.55769800022244,None,right,1,4.502382500097156,447.55769800022244,None,1,452.091828700155,None,,,,,,,,,,,,,,,,,,,,,,,,,,,,,,,,,,,,,,,,,,,,,,,,,,,,,,,,,,,,,,,,,,,41,Male,23,001,2021_Mar_10_1833,cal_abstract,2020.2.4,60.06226066387826,
,Fix1,stimuli/Smell/0.jpg,left,,,,,,,,,,,0,108,108,108,,,,,,,,,,,,,,,,,,,,,,,,,,,,,,,,,,,452.86344960005954,None,452.86344960005954,None,left,1,1.5276597002521157,452.86344960005954,None,1,454.4219423001632,None,,,,,,,,,,,,,,,,,,,,,,,,,,,,,,,,,,,,,,,,,,,,,,,,,,,,,,,,,,,,,,,,,,,41,Male,23,001,2021_Mar_10_1833,cal_abstract,2020.2.4,60.06226066387826,
,Fix2,stimuli/Small/43.jpg,right,,,,,,,,,,,0,109,109,109,,,,,,,,,,,,,,,,,,,,,,,,,,,,,,,,,,,455.2150332001038,None,455.2150332001038,None,right,1,0.9348985003307462,455.2150332001038,None,1,456.17065129987895,None,,,,,,,,,,,,,,,,,,,,,,,,,,,,,,,,,,,,,,,,,,,,,,,,,,,,,,,,,,,,,,,,,,,41,Male,23,001,2021_Mar_10_1833,cal_abstract,2020.2.4,60.06226066387826,
,Cond,stimuli/School/57.jpg,left,,,,,,,,,,,0,110,110,110,,,,,,,,,,,,,,,,,,,,,,,,,,,,,,,,,,,456.9420110001229,None,456.9420110001229,None,left,1,2.9112557996995747,456.9420110001229,None,1,459.8841551002115,None,,,,,,,,,,,,,,,,,,,,,,,,,,,,,,,,,,,,,,,,,,,,,,,,,,,,,,,,,,,,,,,,,,,41,Male,23,001,2021_Mar_10_1833,cal_abstract,2020.2.4,60.06226066387826,
,Fix1,stimuli/Smell/3.jpg,left,,,,,,,,,,,0,111,111,111,,,,,,,,,,,,,,,,,,,,,,,,,,,,,,,,,,,460.6596197001636,None,460.6596197001636,None,right,0,1.947315499652177,460.6596197001636,None,0,462.63673420017585,None,,,,,,,,,,,,,,,,,,,,,,,,,,,,,,,,,,,,,,,,,,,,,,,,,,,,,,,,,,,,,,,,,,,41,Male,23,001,2021_Mar_10_1833,cal_abstract,2020.2.4,60.06226066387826,
,Fix1,stimuli/Smell/9.jpg,left,,,,,,,,,,,0,112,112,112,,,,,,,,,,,,,,,,,,,,,,,,,,,,,,,,,,,463.41251750010997,None,463.41251750010997,None,left,1,1.169533200096339,463.41251750010997,None,1,464.60631539998576,None,,,,,,,,,,,,,,,,,,,,,,,,,,,,,,,,,,,,,,,,,,,,,,,,,,,,,,,,,,,,,,,,,,,41,Male,23,001,2021_Mar_10_1833,cal_abstract,2020.2.4,60.06226066387826,
,Cond,stimuli/School/7.jpg,right,,,,,,,,,,,0,113,113,113,,,,,,,,,,,,,,,,,,,,,,,,,,,,,,,,,,,465.3950474001467,None,465.3950474001467,None,left,0,5.264054600149393,465.3950474001467,None,0,470.6791381002404,None,,,,,,,,,,,,,,,,,,,,,,,,,,,,,,,,,,,,,,,,,,,,,,,,,,,,,,,,,,,,,,,,,,,41,Male,23,001,2021_Mar_10_1833,cal_abstract,2020.2.4,60.06226066387826,
,Cond,stimuli/School/22.jpg,left,,,,,,,,,,,0,114,114,114,,,,,,,,,,,,,,,,,,,,,,,,,,,,,,,,,,,471.4561232002452,None,471.4561232002452,None,left,1,2.3906082999892533,471.4561232002452,None,1,473.87619340000674,None,,,,,,,,,,,,,,,,,,,,,,,,,,,,,,,,,,,,,,,,,,,,,,,,,,,,,,,,,,,,,,,,,,,41,Male,23,001,2021_Mar_10_1833,cal_abstract,2020.2.4,60.06226066387826,
,Fix1,stimuli/Smell/12.jpg,left,,,,,,,,,,,0,115,115,115,,,,,,,,,,,,,,,,,,,,,,,,,,,,,,,,,,,474.67671000026166,None,474.67671000026166,None,left,1,0.8477158998139203,474.67671000026166,None,1,475.55533959995955,None,,,,,,,,,,,,,,,,,,,,,,,,,,,,,,,,,,,,,,,,,,,,,,,,,,,,,,,,,,,,,,,,,,,41,Male,23,001,2021_Mar_10_1833,cal_abstract,2020.2.4,60.06226066387826,
,Fix1,stimuli/Smell/38.jpg,left,,,,,,,,,,,0,116,116,116,,,,,,,,,,,,,,,,,,,,,,,,,,,,,,,,,,,476.3290800000541,None,476.3290800000541,None,right,0,4.120696700178087,476.3290800000541,None,0,480.47581849992275,None,,,,,,,,,,,,,,,,,,,,,,,,,,,,,,,,,,,,,,,,,,,,,,,,,,,,,,,,,,,,,,,,,,,41,Male,23,001,2021_Mar_10_1833,cal_abstract,2020.2.4,60.06226066387826,
,Fix1,stimuli/Smell/44.jpg,left,,,,,,,,,,,0,117,117,117,,,,,,,,,,,,,,,,,,,,,,,,,,,,,,,,,,,481.2326599000953,None,481.2326599000953,None,left,1,0.8322120998054743,481.2326599000953,None,1,482.0859516998753,None,,,,,,,,,,,,,,,,,,,,,,,,,,,,,,,,,,,,,,,,,,,,,,,,,,,,,,,,,,,,,,,,,,,41,Male,23,001,2021_Mar_10_1833,cal_abstract,2020.2.4,60.06226066387826,
,Fix1,stimuli/Smell/14.jpg,left,,,,,,,,,,,0,118,118,118,,,,,,,,,,,,,,,,,,,,,,,,,,,,,,,,,,,482.8779027001001,None,482.8779027001001,None,left,1,2.2566921999678016,482.8779027001001,None,1,485.16349630011246,None,,,,,,,,,,,,,,,,,,,,,,,,,,,,,,,,,,,,,,,,,,,,,,,,,,,,,,,,,,,,,,,,,,,41,Male,23,001,2021_Mar_10_1833,cal_abstract,2020.2.4,60.06226066387826,
,Fix2,stimuli/Small/24.jpg,right,,,,,,,,,,,0,119,119,119,,,,,,,,,,,,,,,,,,,,,,,,,,,,,,,,,,,485.9474406000227,None,485.9474406000227,None,right,1,1.0782759999856353,485.9474406000227,None,1,487.0448834998533,None,,,,,,,,,,,,,,,,,,,,,,,,,,,,,,,,,,,,,,,,,,,,,,,,,,,,,,,,,,,,,,,,,,,41,Male,23,001,2021_Mar_10_1833,cal_abstract,2020.2.4,60.06226066387826,
,Fix1,stimuli/Smell/40.jpg,left,,,,,,,,,,,0,120,120,120,,,,,,,,,,,,,,,,,,,,,,,,,,,,,,,,,,,487.81349830003455,None,487.81349830003455,None,left,1,0.8085666000843048,487.81349830003455,None,1,488.64422739995643,None,,,,,,,,,,,,,,,,,,,,,,,,,,,,,,,,,,,,,,,,,,,,,,,,,,,,,,,,,,,,,,,,,,,41,Male,23,001,2021_Mar_10_1833,cal_abstract,2020.2.4,60.06226066387826,
,Fix1,stimuli/Smell/51.jpg,left,,,,,,,,,,,0,121,121,121,,,,,,,,,,,,,,,,,,,,,,,,,,,,,,,,,,,489.4333436000161,None,489.4333436000161,None,left,1,0.6774673000909388,489.4333436000161,None,1,490.12911010021344,None,,,,,,,,,,,,,,,,,,,,,,,,,,,,,,,,,,,,,,,,,,,,,,,,,,,,,,,,,,,,,,,,,,,41,Male,23,001,2021_Mar_10_1833,cal_abstract,2020.2.4,60.06226066387826,
,Fix2,stimuli/Small/58.jpg,right,,,,,,,,,,,0,122,122,122,,,,,,,,,,,,,,,,,,,,,,,,,,,,,,,,,,,490.91852919990197,None,490.91852919990197,None,left,0,0.8413464999757707,490.91852919990197,None,0,491.78225129982457,None,,,,,,,,,,,,,,,,,,,,,,,,,,,,,,,,,,,,,,,,,,,,,,,,,,,,,,,,,,,,,,,,,,,41,Male,23,001,2021_Mar_10_1833,cal_abstract,2020.2.4,60.06226066387826,
,Fix1,stimuli/Smell/28.jpg,left,,,,,,,,,,,0,123,123,123,,,,,,,,,,,,,,,,,,,,,,,,,,,,,,,,,,,492.55566579988226,None,492.55566579988226,None,left,1,0.8252753000706434,492.55566579988226,None,1,493.4125299998559,None,,,,,,,,,,,,,,,,,,,,,,,,,,,,,,,,,,,,,,,,,,,,,,,,,,,,,,,,,,,,,,,,,,,41,Male,23,001,2021_Mar_10_1833,cal_abstract,2020.2.4,60.06226066387826,
,Fix2,stimuli/Small/30.jpg,right,,,,,,,,,,,0,124,124,124,,,,,,,,,,,,,,,,,,,,,,,,,,,,,,,,,,,494.1940305000171,None,494.1940305000171,None,right,1,1.1475630002096295,494.1940305000171,None,1,495.37117070006207,None,,,,,,,,,,,,,,,,,,,,,,,,,,,,,,,,,,,,,,,,,,,,,,,,,,,,,,,,,,,,,,,,,,,41,Male,23,001,2021_Mar_10_1833,cal_abstract,2020.2.4,60.06226066387826,
,Fix2,stimuli/Small/0.jpg,right,,,,,,,,,,,0,125,125,125,,,,,,,,,,,,,,,,,,,,,,,,,,,,,,,,,,,496.13625970017165,None,496.13625970017165,None,right,1,0.5758313997648656,496.13625970017165,None,1,496.7372841001488,None,,,,,,,,,,,,,,,,,,,,,,,,,,,,,,,,,,,,,,,,,,,,,,,,,,,,,,,,,,,,,,,,,,,41,Male,23,001,2021_Mar_10_1833,cal_abstract,2020.2.4,60.06226066387826,
,Fix1,stimuli/Smell/32.jpg,left,,,,,,,,,,,0,126,126,126,,,,,,,,,,,,,,,,,,,,,,,,,,,,,,,,,,,497.50219349982217,None,497.50219349982217,None,left,1,1.3395606996491551,497.50219349982217,None,1,498.8682078998536,None,,,,,,,,,,,,,,,,,,,,,,,,,,,,,,,,,,,,,,,,,,,,,,,,,,,,,,,,,,,,,,,,,,,41,Male,23,001,2021_Mar_10_1833,cal_abstract,2020.2.4,60.06226066387826,
,Fix2,stimuli/Small/55.jpg,right,,,,,,,,,,,0,127,127,127,,,,,,,,,,,,,,,,,,,,,,,,,,,,,,,,,,,499.63261840026826,None,499.63261840026826,None,right,1,0.936956999823451,499.63261840026826,None,1,500.6010322002694,None,,,,,,,,,,,,,,,,,,,,,,,,,,,,,,,,,,,,,,,,,,,,,,,,,,,,,,,,,,,,,,,,,,,41,Male,23,001,2021_Mar_10_1833,cal_abstract,2020.2.4,60.06226066387826,
,Fix2,stimuli/Small/49.jpg,right,,,,,,,,,,,0,128,128,128,,,,,,,,,,,,,,,,,,,,,,,,,,,,,,,,,,,501.3646265999414,None,501.3646265999414,None,right,1,1.461122699547559,501.3646265999414,None,1,502.8483883999288,None,,,,,,,,,,,,,,,,,,,,,,,,,,,,,,,,,,,,,,,,,,,,,,,,,,,,,,,,,,,,,,,,,,,41,Male,23,001,2021_Mar_10_1833,cal_abstract,2020.2.4,60.06226066387826,
,Fix1,stimuli/Smell/56.jpg,left,,,,,,,,,,,0,129,129,129,,,,,,,,,,,,,,,,,,,,,,,,,,,,,,,,,,,503.6261078999378,None,503.6261078999378,None,left,1,1.4618472997099161,503.6261078999378,None,1,505.11559160007164,None,,,,,,,,,,,,,,,,,,,,,,,,,,,,,,,,,,,,,,,,,,,,,,,,,,,,,,,,,,,,,,,,,,,41,Male,23,001,2021_Mar_10_1833,cal_abstract,2020.2.4,60.06226066387826,
,Fix1,stimuli/Smell/24.jpg,left,,,,,,,,,,,0,130,130,130,,,,,,,,,,,,,,,,,,,,,,,,,,,,,,,,,,,505.8905925001018,None,505.8905925001018,None,left,1,3.0173235996626318,505.8905925001018,None,1,508.9270768999122,None,,,,,,,,,,,,,,,,,,,,,,,,,,,,,,,,,,,,,,,,,,,,,,,,,,,,,,,,,,,,,,,,,,,41,Male,23,001,2021_Mar_10_1833,cal_abstract,2020.2.4,60.06226066387826,
,Cond,stimuli/School/10.jpg,right,,,,,,,,,,,0,131,131,131,,,,,,,,,,,,,,,,,,,,,,,,,,,,,,,,,,,509.69946439983323,None,509.69946439983323,None,right,1,1.5976208001375198,509.69946439983323,None,1,511.32748320000246,None,,,,,,,,,,,,,,,,,,,,,,,,,,,,,,,,,,,,,,,,,,,,,,,,,,,,,,,,,,,,,,,,,,,41,Male,23,001,2021_Mar_10_1833,cal_abstract,2020.2.4,60.06226066387826,
,Fix2,stimuli/Small/33.jpg,right,,,,,,,,,,,0,132,132,132,,,,,,,,,,,,,,,,,,,,,,,,,,,,,,,,,,,512.1088744001463,None,512.1088744001463,None,right,1,2.3552020001225173,512.1088744001463,None,1,514.4897938999347,None,,,,,,,,,,,,,,,,,,,,,,,,,,,,,,,,,,,,,,,,,,,,,,,,,,,,,,,,,,,,,,,,,,,41,Male,23,001,2021_Mar_10_1833,cal_abstract,2020.2.4,60.06226066387826,
,Cond,stimuli/School/55.jpg,left,,,,,,,,,,,0,133,133,133,,,,,,,,,,,,,,,,,,,,,,,,,,,,,,,,,,,515.2580514000729,None,515.2580514000729,None,left,1,2.1383138997480273,515.2580514000729,None,1,517.4228260000236,None,,,,,,,,,,,,,,,,,,,,,,,,,,,,,,,,,,,,,,,,,,,,,,,,,,,,,,,,,,,,,,,,,,,41,Male,23,001,2021_Mar_10_1833,cal_abstract,2020.2.4,60.06226066387826,
,Fix1,stimuli/Smell/53.jpg,left,,,,,,,,,,,0,134,134,134,,,,,,,,,,,,,,,,,,,,,,,,,,,,,,,,,,,518.1997838001698,None,518.1997838001698,None,left,1,0.8804056998342276,518.1997838001698,None,1,519.102932299953,None,,,,,,,,,,,,,,,,,,,,,,,,,,,,,,,,,,,,,,,,,,,,,,,,,,,,,,,,,,,,,,,,,,,41,Male,23,001,2021_Mar_10_1833,cal_abstract,2020.2.4,60.06226066387826,
,Fix1,stimuli/Smell/54.jpg,left,,,,,,,,,,,0,135,135,135,,,,,,,,,,,,,,,,,,,,,,,,,,,,,,,,,,,519.9045535000041,None,519.9045535000041,None,left,1,2.306261899881065,519.9045535000041,None,1,522.2344205998816,None,,,,,,,,,,,,,,,,,,,,,,,,,,,,,,,,,,,,,,,,,,,,,,,,,,,,,,,,,,,,,,,,,,,41,Male,23,001,2021_Mar_10_1833,cal_abstract,2020.2.4,60.06226066387826,
,Fix2,stimuli/Small/8.jpg,right,,,,,,,,,,,0,136,136,136,,,,,,,,,,,,,,,,,,,,,,,,,,,,,,,,,,,523.0438303002156,None,523.0438303002156,None,right,1,4.063382199965417,523.0438303002156,None,1,527.1282963999547,None,,,,,,,,,,,,,,,,,,,,,,,,,,,,,,,,,,,,,,,,,,,,,,,,,,,,,,,,,,,,,,,,,,,41,Male,23,001,2021_Mar_10_1833,cal_abstract,2020.2.4,60.06226066387826,
,Fix1,stimuli/Smell/18.jpg,left,,,,,,,,,,,0,137,137,137,,,,,,,,,,,,,,,,,,,,,,,,,,,,,,,,,,,527.8888284000568,None,527.8888284000568,None,left,1,0.696064599789679,527.8888284000568,None,1,528.6111019998789,None,,,,,,,,,,,,,,,,,,,,,,,,,,,,,,,,,,,,,,,,,,,,,,,,,,,,,,,,,,,,,,,,,,,41,Male,23,001,2021_Mar_10_1833,cal_abstract,2020.2.4,60.06226066387826,
,Fix1,stimuli/Smell/58.jpg,left,,,,,,,,,,,0,138,138,138,,,,,,,,,,,,,,,,,,,,,,,,,,,,,,,,,,,529.3740544002503,None,529.3740544002503,None,left,1,1.3527640998363495,529.3740544002503,None,1,530.7433438999578,None,,,,,,,,,,,,,,,,,,,,,,,,,,,,,,,,,,,,,,,,,,,,,,,,,,,,,,,,,,,,,,,,,,,41,Male,23,001,2021_Mar_10_1833,cal_abstract,2020.2.4,60.06226066387826,
,Fix2,stimuli/Small/10.jpg,right,,,,,,,,,,,0,139,139,139,,,,,,,,,,,,,,,,,,,,,,,,,,,,,,,,,,,531.5492659998126,None,531.5492659998126,None,right,1,1.1937044002115726,531.5492659998126,None,1,532.7616930999793,None,,,,,,,,,,,,,,,,,,,,,,,,,,,,,,,,,,,,,,,,,,,,,,,,,,,,,,,,,,,,,,,,,,,41,Male,23,001,2021_Mar_10_1833,cal_abstract,2020.2.4,60.06226066387826,
,Cond,stimuli/School/4.jpg,left,,,,,,,,,,,0,140,140,140,,,,,,,,,,,,,,,,,,,,,,,,,,,,,,,,,,,533.5352516998537,None,533.5352516998537,None,right,0,2.8311041998676956,533.5352516998537,None,0,536.3921711998992,None,,,,,,,,,,,,,,,,,,,,,,,,,,,,,,,,,,,,,,,,,,,,,,,,,,,,,,,,,,,,,,,,,,,41,Male,23,001,2021_Mar_10_1833,cal_abstract,2020.2.4,60.06226066387826,
,Cond,stimuli/School/41.jpg,right,,,,,,,,,,,0,141,141,141,,,,,,,,,,,,,,,,,,,,,,,,,,,,,,,,,,,537.1671559000388,None,537.1671559000388,None,right,1,0.962824400048703,537.1671559000388,None,1,538.1581894000992,None,,,,,,,,,,,,,,,,,,,,,,,,,,,,,,,,,,,,,,,,,,,,,,,,,,,,,,,,,,,,,,,,,,,41,Male,23,001,2021_Mar_10_1833,cal_abstract,2020.2.4,60.06226066387826,
,Fix2,stimuli/Small/5.jpg,right,,,,,,,,,,,0,142,142,142,,,,,,,,,,,,,,,,,,,,,,,,,,,,,,,,,,,538.9312519002706,None,538.9312519002706,None,right,1,1.8841568999923766,538.9312519002706,None,1,540.8338438998908,None,,,,,,,,,,,,,,,,,,,,,,,,,,,,,,,,,,,,,,,,,,,,,,,,,,,,,,,,,,,,,,,,,,,41,Male,23,001,2021_Mar_10_1833,cal_abstract,2020.2.4,60.06226066387826,
,Cond,stimuli/School/33.jpg,left,,,,,,,,,,,0,143,143,143,,,,,,,,,,,,,,,,,,,,,,,,,,,,,,,,,,,541.6149766999297,None,541.6149766999297,None,left,1,1.9300604001618922,541.6149766999297,None,1,543.5816905000247,None,,,,,,,,,,,,,,,,,,,,,,,,,,,,,,,,,,,,,,,,,,,,,,,,,,,,,,,,,,,,,,,,,,,41,Male,23,001,2021_Mar_10_1833,cal_abstract,2020.2.4,60.06226066387826,
,Cond,stimuli/School/51.jpg,right,,,,,,,,,,,0,144,144,144,,,,,,,,,,,,,,,,,,,,,,,,,,,,,,,,,,,544.3516305000521,None,544.3516305000521,None,right,1,2.561087999958545,544.3516305000521,None,1,546.9289823998697,None,,,,,,,,,,,,,,,,,,,,,,,,,,,,,,,,,,,,,,,,,,,,,,,,,,,,,,,,,,,,,,,,,,,41,Male,23,001,2021_Mar_10_1833,cal_abstract,2020.2.4,60.06226066387826,
,Fix1,stimuli/Smell/19.jpg,left,,,,,,,,,,,0,145,145,145,,,,,,,,,,,,,,,,,,,,,,,,,,,,,,,,,,,547.713615800254,None,547.713615800254,None,left,1,1.706033700145781,547.713615800254,None,1,549.4435753999278,None,,,,,,,,,,,,,,,,,,,,,,,,,,,,,,,,,,,,,,,,,,,,,,,,,,,,,,,,,,,,,,,,,,,41,Male,23,001,2021_Mar_10_1833,cal_abstract,2020.2.4,60.06226066387826,
,Cond,stimuli/School/37.jpg,right,,,,,,,,,,,0,146,146,146,,,,,,,,,,,,,,,,,,,,,,,,,,,,,,,,,,,550.2089463998564,None,550.2089463998564,None,right,1,3.339685400016606,550.2089463998564,None,1,553.5741460998543,None,,,,,,,,,,,,,,,,,,,,,,,,,,,,,,,,,,,,,,,,,,,,,,,,,,,,,,,,,,,,,,,,,,,41,Male,23,001,2021_Mar_10_1833,cal_abstract,2020.2.4,60.06226066387826,
,Fix2,stimuli/Small/25.jpg,right,,,,,,,,,,,0,147,147,147,,,,,,,,,,,,,,,,,,,,,,,,,,,,,,,,,,,554.3447255999781,None,554.3447255999781,None,left,0,1.3059241999872029,554.3447255999781,None,0,555.6743234000169,None,,,,,,,,,,,,,,,,,,,,,,,,,,,,,,,,,,,,,,,,,,,,,,,,,,,,,,,,,,,,,,,,,,,41,Male,23,001,2021_Mar_10_1833,cal_abstract,2020.2.4,60.06226066387826,
,Fix1,stimuli/Smell/15.jpg,left,,,,,,,,,,,0,148,148,148,,,,,,,,,,,,,,,,,,,,,,,,,,,,,,,,,,,556.4548984998837,None,556.4548984998837,None,left,1,1.1406092997640371,556.4548984998837,None,1,557.6271983999759,None,,,,,,,,,,,,,,,,,,,,,,,,,,,,,,,,,,,,,,,,,,,,,,,,,,,,,,,,,,,,,,,,,,,41,Male,23,001,2021_Mar_10_1833,cal_abstract,2020.2.4,60.06226066387826,
,Cond,stimuli/School/40.jpg,right,,,,,,,,,,,0,149,149,149,,,,,,,,,,,,,,,,,,,,,,,,,,,,,,,,,,,558.4333779998124,None,558.4333779998124,None,right,1,4.225988500285894,558.4333779998124,None,1,562.6840766998939,None,,,,,,,,,,,,,,,,,,,,,,,,,,,,,,,,,,,,,,,,,,,,,,,,,,,,,,,,,,,,,,,,,,,41,Male,23,001,2021_Mar_10_1833,cal_abstract,2020.2.4,60.06226066387826,
,Fix2,stimuli/Small/45.jpg,right,,,,,,,,,,,0,150,150,150,,,,,,,,,,,,,,,,,,,,,,,,,,,,,,,,,,,563.4641676000319,None,563.4641676000319,None,left,0,2.11893290001899,563.4641676000319,None,0,565.6271202000789,None,,,,,,,,,,,,,,,,,,,,,,,,,,,,,,,,,,,,,,,,,,,,,,,,,,,,,,,,,,,,,,,,,,,41,Male,23,001,2021_Mar_10_1833,cal_abstract,2020.2.4,60.06226066387826,
,Fix2,stimuli/Small/2.jpg,right,,,,,,,,,,,0,151,151,151,,,,,,,,,,,,,,,,,,,,,,,,,,,,,,,,,,,566.433079100214,None,566.433079100214,None,right,1,1.6320616002194583,566.433079100214,None,1,568.1005986998789,None,,,,,,,,,,,,,,,,,,,,,,,,,,,,,,,,,,,,,,,,,,,,,,,,,,,,,,,,,,,,,,,,,,,41,Male,23,001,2021_Mar_10_1833,cal_abstract,2020.2.4,60.06226066387826,
,Cond,stimuli/School/16.jpg,left,,,,,,,,,,,0,152,152,152,,,,,,,,,,,,,,,,,,,,,,,,,,,,,,,,,,,568.8735567000695,None,568.8735567000695,None,left,1,1.8375373003073037,568.8735567000695,None,1,570.7262563002296,None,,,,,,,,,,,,,,,,,,,,,,,,,,,,,,,,,,,,,,,,,,,,,,,,,,,,,,,,,,,,,,,,,,,41,Male,23,001,2021_Mar_10_1833,cal_abstract,2020.2.4,60.06226066387826,
,Cond,stimuli/School/47.jpg,right,,,,,,,,,,,0,153,153,153,,,,,,,,,,,,,,,,,,,,,,,,,,,,,,,,,,,571.498988899868,None,571.498988899868,None,right,1,2.243749499786645,571.498988899868,None,1,573.7753726998344,None,,,,,,,,,,,,,,,,,,,,,,,,,,,,,,,,,,,,,,,,,,,,,,,,,,,,,,,,,,,,,,,,,,,41,Male,23,001,2021_Mar_10_1833,cal_abstract,2020.2.4,60.06226066387826,
,Cond,stimuli/School/56.jpg,left,,,,,,,,,,,0,154,154,154,,,,,,,,,,,,,,,,,,,,,,,,,,,,,,,,,,,574.5588357001543,None,574.5588357001543,None,left,1,1.023185399826616,574.5588357001543,None,1,575.6082794000395,None,,,,,,,,,,,,,,,,,,,,,,,,,,,,,,,,,,,,,,,,,,,,,,,,,,,,,,,,,,,,,,,,,,,41,Male,23,001,2021_Mar_10_1833,cal_abstract,2020.2.4,60.06226066387826,
,Fix2,stimuli/Small/40.jpg,right,,,,,,,,,,,0,155,155,155,,,,,,,,,,,,,,,,,,,,,,,,,,,,,,,,,,,576.4039280000143,None,576.4039280000143,None,right,1,0.8337249998003244,576.4039280000143,None,1,577.2543898001313,None,,,,,,,,,,,,,,,,,,,,,,,,,,,,,,,,,,,,,,,,,,,,,,,,,,,,,,,,,,,,,,,,,,,41,Male,23,001,2021_Mar_10_1833,cal_abstract,2020.2.4,60.06226066387826,
,Fix1,stimuli/Smell/6.jpg,left,,,,,,,,,,,0,156,156,156,,,,,,,,,,,,,,,,,,,,,,,,,,,,,,,,,,,578.0211602998897,None,578.0211602998897,None,left,1,1.6791750001721084,578.0211602998897,None,1,579.7192473001778,None,,,,,,,,,,,,,,,,,,,,,,,,,,,,,,,,,,,,,,,,,,,,,,,,,,,,,,,,,,,,,,,,,,,41,Male,23,001,2021_Mar_10_1833,cal_abstract,2020.2.4,60.06226066387826,
,Fix2,stimuli/Small/28.jpg,right,,,,,,,,,,,0,157,157,157,,,,,,,,,,,,,,,,,,,,,,,,,,,,,,,,,,,580.4947502999566,None,580.4947502999566,None,right,1,1.038228899706155,580.4947502999566,None,1,581.5508991000243,None,,,,,,,,,,,,,,,,,,,,,,,,,,,,,,,,,,,,,,,,,,,,,,,,,,,,,,,,,,,,,,,,,,,41,Male,23,001,2021_Mar_10_1833,cal_abstract,2020.2.4,60.06226066387826,
,Fix2,stimuli/Small/12.jpg,right,,,,,,,,,,,0,158,158,158,,,,,,,,,,,,,,,,,,,,,,,,,,,,,,,,,,,582.3231338001788,None,582.3231338001788,None,right,1,1.3365382002666593,582.3231338001788,None,1,583.6826435998082,None,,,,,,,,,,,,,,,,,,,,,,,,,,,,,,,,,,,,,,,,,,,,,,,,,,,,,,,,,,,,,,,,,,,41,Male,23,001,2021_Mar_10_1833,cal_abstract,2020.2.4,60.06226066387826,
,Cond,stimuli/School/21.jpg,left,,,,,,,,,,,0,159,159,159,,,,,,,,,,,,,,,,,,,,,,,,,,,,,,,,,,,584.4692671000957,None,584.4692671000957,None,left,1,2.847797999624163,584.4692671000957,None,1,587.3462387998588,None,,,,,,,,,,,,,,,,,,,,,,,,,,,,,,,,,,,,,,,,,,,,,,,,,,,,,,,,,,,,,,,,,,,41,Male,23,001,2021_Mar_10_1833,cal_abstract,2020.2.4,60.06226066387826,
,Cond,stimuli/School/11.jpg,right,,,,,,,,,,,0,160,160,160,,,,,,,,,,,,,,,,,,,,,,,,,,,,,,,,,,,588.1380790001713,None,588.1380790001713,None,right,1,1.4313329998403788,588.1380790001713,None,1,589.5967863001861,None,,,,,,,,,,,,,,,,,,,,,,,,,,,,,,,,,,,,,,,,,,,,,,,,,,,,,,,,,,,,,,,,,,,41,Male,23,001,2021_Mar_10_1833,cal_abstract,2020.2.4,60.06226066387826,
,Fix1,stimuli/Smell/46.jpg,left,,,,,,,,,,,0,161,161,161,,,,,,,,,,,,,,,,,,,,,,,,,,,,,,,,,,,590.3718174998648,None,590.3718174998648,None,left,1,1.1150223999284208,590.3718174998648,None,1,591.5118376999162,None,,,,,,,,,,,,,,,,,,,,,,,,,,,,,,,,,,,,,,,,,,,,,,,,,,,,,,,,,,,,,,,,,,,41,Male,23,001,2021_Mar_10_1833,cal_abstract,2020.2.4,60.06226066387826,
,Fix2,stimuli/Small/38.jpg,right,,,,,,,,,,,0,162,162,162,,,,,,,,,,,,,,,,,,,,,,,,,,,,,,,,,,,592.3100784001872,None,592.3100784001872,None,right,1,1.825888799969107,592.3100784001872,None,1,594.1573363998905,None,,,,,,,,,,,,,,,,,,,,,,,,,,,,,,,,,,,,,,,,,,,,,,,,,,,,,,,,,,,,,,,,,,,41,Male,23,001,2021_Mar_10_1833,cal_abstract,2020.2.4,60.06226066387826,
,Fix2,stimuli/Small/17.jpg,right,,,,,,,,,,,0,163,163,163,,,,,,,,,,,,,,,,,,,,,,,,,,,,,,,,,,,594.9202176998369,None,594.9202176998369,None,right,1,0.9813012997619808,594.9202176998369,None,1,595.9249893999659,None,,,,,,,,,,,,,,,,,,,,,,,,,,,,,,,,,,,,,,,,,,,,,,,,,,,,,,,,,,,,,,,,,,,41,Male,23,001,2021_Mar_10_1833,cal_abstract,2020.2.4,60.06226066387826,
,Cond,stimuli/School/52.jpg,left,,,,,,,,,,,0,164,164,164,,,,,,,,,,,,,,,,,,,,,,,,,,,,,,,,,,,596.7137059001252,None,596.7137059001252,None,left,1,0.7462698998861015,596.7137059001252,None,1,597.4887504000217,None,,,,,,,,,,,,,,,,,,,,,,,,,,,,,,,,,,,,,,,,,,,,,,,,,,,,,,,,,,,,,,,,,,,41,Male,23,001,2021_Mar_10_1833,cal_abstract,2020.2.4,60.06226066387826,
,Fix1,stimuli/Smell/1.jpg,left,,,,,,,,,,,0,165,165,165,,,,,,,,,,,,,,,,,,,,,,,,,,,,,,,,,,,598.2759660999291,None,598.2759660999291,None,left,1,1.4251566003076732,598.2759660999291,None,1,599.7218721001409,None,,,,,,,,,,,,,,,,,,,,,,,,,,,,,,,,,,,,,,,,,,,,,,,,,,,,,,,,,,,,,,,,,,,41,Male,23,001,2021_Mar_10_1833,cal_abstract,2020.2.4,60.06226066387826,
,Fix1,stimuli/Smell/55.jpg,left,,,,,,,,,,,0,166,166,166,,,,,,,,,,,,,,,,,,,,,,,,,,,,,,,,,,,600.5052885999903,None,600.5052885999903,None,left,1,1.1396976001560688,600.5052885999903,None,1,601.6673206002451,None,,,,,,,,,,,,,,,,,,,,,,,,,,,,,,,,,,,,,,,,,,,,,,,,,,,,,,,,,,,,,,,,,,,41,Male,23,001,2021_Mar_10_1833,cal_abstract,2020.2.4,60.06226066387826,
,Cond,stimuli/School/0.jpg,right,,,,,,,,,,,0,167,167,167,,,,,,,,,,,,,,,,,,,,,,,,,,,,,,,,,,,602.4486222001724,None,602.4486222001724,None,right,1,4.531627299729735,602.4486222001724,None,1,606.9966338002123,None,,,,,,,,,,,,,,,,,,,,,,,,,,,,,,,,,,,,,,,,,,,,,,,,,,,,,,,,,,,,,,,,,,,41,Male,23,001,2021_Mar_10_1833,cal_abstract,2020.2.4,60.06226066387826,
,Fix2,stimuli/Small/36.jpg,right,,,,,,,,,,,0,168,168,168,,,,,,,,,,,,,,,,,,,,,,,,,,,,,,,,,,,607.7645383998752,None,607.7645383998752,None,left,0,1.547898800112307,607.7645383998752,None,0,609.3400273001753,None,,,,,,,,,,,,,,,,,,,,,,,,,,,,,,,,,,,,,,,,,,,,,,,,,,,,,,,,,,,,,,,,,,,41,Male,23,001,2021_Mar_10_1833,cal_abstract,2020.2.4,60.06226066387826,
,Fix1,stimuli/Smell/5.jpg,left,,,,,,,,,,,0,169,169,169,,,,,,,,,,,,,,,,,,,,,,,,,,,,,,,,,,,610.1203199001029,None,610.1203199001029,None,left,1,1.8866094001568854,610.1203199001029,None,1,612.0298407999799,None,,,,,,,,,,,,,,,,,,,,,,,,,,,,,,,,,,,,,,,,,,,,,,,,,,,,,,,,,,,,,,,,,,,41,Male,23,001,2021_Mar_10_1833,cal_abstract,2020.2.4,60.06226066387826,
,Fix2,stimuli/Small/4.jpg,right,,,,,,,,,,,0,170,170,170,,,,,,,,,,,,,,,,,,,,,,,,,,,,,,,,,,,612.812038499862,None,612.812038499862,None,right,1,0.905371000058949,612.812038499862,None,1,613.7416798002087,None,,,,,,,,,,,,,,,,,,,,,,,,,,,,,,,,,,,,,,,,,,,,,,,,,,,,,,,,,,,,,,,,,,,41,Male,23,001,2021_Mar_10_1833,cal_abstract,2020.2.4,60.06226066387826,
,Fix2,stimuli/Small/26.jpg,right,,,,,,,,,,,0,171,171,171,,,,,,,,,,,,,,,,,,,,,,,,,,,,,,,,,,,614.5531218000688,None,614.5531218000688,None,right,1,2.3680086000822484,614.5531218000688,None,1,616.9387854998931,None,,,,,,,,,,,,,,,,,,,,,,,,,,,,,,,,,,,,,,,,,,,,,,,,,,,,,,,,,,,,,,,,,,,41,Male,23,001,2021_Mar_10_1833,cal_abstract,2020.2.4,60.06226066387826,
,Fix1,stimuli/Smell/25.jpg,left,,,,,,,,,,,0,172,172,172,,,,,,,,,,,,,,,,,,,,,,,,,,,,,,,,,,,617.7282225000672,None,617.7282225000672,None,left,1,14.416518699843436,617.7282225000672,None,1,632.1758665000089,None,,,,,,,,,,,,,,,,,,,,,,,,,,,,,,,,,,,,,,,,,,,,,,,,,,,,,,,,,,,,,,,,,,,41,Male,23,001,2021_Mar_10_1833,cal_abstract,2020.2.4,60.06226066387826,
,Fix2,stimuli/Small/7.jpg,right,,,,,,,,,,,0,173,173,173,,,,,,,,,,,,,,,,,,,,,,,,,,,,,,,,,,,632.9563110000454,None,632.9563110000454,None,right,1,0.6022036001086235,632.9563110000454,None,1,633.5750231998973,None,,,,,,,,,,,,,,,,,,,,,,,,,,,,,,,,,,,,,,,,,,,,,,,,,,,,,,,,,,,,,,,,,,,41,Male,23,001,2021_Mar_10_1833,cal_abstract,2020.2.4,60.06226066387826,
,Fix2,stimuli/Small/53.jpg,right,,,,,,,,,,,0,174,174,174,,,,,,,,,,,,,,,,,,,,,,,,,,,,,,,,,,,634.359287600033,None,634.359287600033,None,right,1,0.7010264000855386,634.359287600033,None,1,635.0906607001089,None,,,,,,,,,,,,,,,,,,,,,,,,,,,,,,,,,,,,,,,,,,,,,,,,,,,,,,,,,,,,,,,,,,,41,Male,23,001,2021_Mar_10_1833,cal_abstract,2020.2.4,60.06226066387826,
,Fix2,stimuli/Small/20.jpg,right,,,,,,,,,,,0,175,175,175,,,,,,,,,,,,,,,,,,,,,,,,,,,,,,,,,,,635.8867226000875,None,635.8867226000875,None,right,1,1.5145539999939501,635.8867226000875,None,1,637.4215588001534,None,,,,,,,,,,,,,,,,,,,,,,,,,,,,,,,,,,,,,,,,,,,,,,,,,,,,,,,,,,,,,,,,,,,41,Male,23,001,2021_Mar_10_1833,cal_abstract,2020.2.4,60.06226066387826,
,Fix1,stimuli/Smell/37.jpg,left,,,,,,,,,,,0,176,176,176,,,,,,,,,,,,,,,,,,,,,,,,,,,,,,,,,,,638.1984929000027,None,638.1984929000027,None,left,1,0.8847344000823796,638.1984929000027,None,1,639.1034951000474,None,,,,,,,,,,,,,,,,,,,,,,,,,,,,,,,,,,,,,,,,,,,,,,,,,,,,,,,,,,,,,,,,,,,41,Male,23,001,2021_Mar_10_1833,cal_abstract,2020.2.4,60.06226066387826,
,Fix1,stimuli/Smell/45.jpg,left,,,,,,,,,,,0,177,177,177,,,,,,,,,,,,,,,,,,,,,,,,,,,,,,,,,,,639.8718126998283,None,639.8718126998283,None,left,1,4.127485699951649,639.8718126998283,None,1,644.0169516000897,None,,,,,,,,,,,,,,,,,,,,,,,,,,,,,,,,,,,,,,,,,,,,,,,,,,,,,,,,,,,,,,,,,,,41,Male,23,001,2021_Mar_10_1833,cal_abstract,2020.2.4,60.06226066387826,
,Cond,stimuli/School/30.jpg,right,,,,,,,,,,,0,178,178,178,,,,,,,,,,,,,,,,,,,,,,,,,,,,,,,,,,,644.795687600039,None,644.795687600039,None,right,1,6.403469599783421,644.795687600039,None,1,651.2266806000844,None,,,,,,,,,,,,,,,,,,,,,,,,,,,,,,,,,,,,,,,,,,,,,,,,,,,,,,,,,,,,,,,,,,,41,Male,23,001,2021_Mar_10_1833,cal_abstract,2020.2.4,60.06226066387826,
,Cond,stimuli/School/5.jpg,left,,,,,,,,,,,0,179,179,179,,,,,,,,,,,,,,,,,,,,,,,,,,,,,,,,,,,651.9922174001113,None,651.9922174001113,None,right,0,5.075433999765664,651.9922174001113,None,0,657.0917036002502,None,,,,,,,,,,,,,,,,,,,,,,,,,,,,,,,,,,,,,,,,,,,,,,,,,,,,,,,,,,,,,,,,,,,41,Male,23,001,2021_Mar_10_1833,cal_abstract,2020.2.4,60.06226066387826,
,,,,,,,,,,,,,,,,,,,,,,,,,,,,,,,,,,,,,,,,,,,,,,,,,,,,,,,,,,,,,,,,657.8550179000013,None,c,2.804871799889952,657.8550179000013,None,,,,,,,,,,,,,,,,,,,,,,,,,,,,,,,,,,,,,,,,,,,,,,,,,,,,,,,,,,,,,41,Male,23,001,2021_Mar_10_1833,cal_abstract,2020.2.4,60.06226066387826,
,,,,,,,,,,,,,,,,,,,,,,,,,,,,,,,,,,,,,,,,,,,,,,,,,,,,,,,,,,,,,,,,,,,,,,660.6875676000491,None,660.6875676000491,None,return,2.3483421998098493,660.6875676000491,None,,,,,,,,,,,,,,,,,,,,,,,,,,,,,,,,,,,,,,,,,,,,,,,,,,,,,41,Male,23,001,2021_Mar_10_1833,cal_abstract,2020.2.4,60.06226066387826,
,,,,,,,,,,,,,,,,,,,,,,,,,,,,,,,,,,,,,,,,,,,,,,,,,,,,,,,,,,,,,,,,,,,,,,,,,,,,,,663.0663395999,None,663.0663395999,None,s,2.244815300218761,663.0663395999,None,,,,,,,,,,,,,,,,,,,,,,,,,,,,,,,,,,,,,,,,,,,,,41,Male,23,001,2021_Mar_10_1833,cal_abstract,2020.2.4,60.06226066387826,
,,,,Fix2,stimuli/Wealth/21.jpg,right,,,,,,,,,,,,0,0,0,0,,,,,,,,,,,,,,,,,,,,,,,,,,,,,,,,,,,,,,,,1,,,,,,,,,,,,,,,,,,,,,,,,,665.4079799000174,None,665.4079799000174,None,right,1,1.9382074000313878,665.4079799000174,None,667.3750546001829,None,,,,,,,,,,,,,,,,,,,,,,,,,,,,,,,,,,41,Male,23,001,2021_Mar_10_1833,cal_abstract,2020.2.4,60.06226066387826,
,,,,Fix2,stimuli/Wealth/3.jpg,right,,,,,,,,,,,,0,1,1,1,,,,,,,,,,,,,,,,,,,,,,,,,,,,,,,,,,,,,,,,1,,,,,,,,,,,,,,,,,,,,,,,,,668.138345700223,None,668.138345700223,None,right,1,0.8802487999200821,668.138345700223,None,669.0457084998488,None,,,,,,,,,,,,,,,,,,,,,,,,,,,,,,,,,,41,Male,23,001,2021_Mar_10_1833,cal_abstract,2020.2.4,60.06226066387826,
,,,,Fix2,stimuli/Wealth/44.jpg,right,,,,,,,,,,,,0,2,2,2,,,,,,,,,,,,,,,,,,,,,,,,,,,,,,,,,,,,,,,,1,,,,,,,,,,,,,,,,,,,,,,,,,669.8294465001673,None,669.8294465001673,None,right,1,0.9207663000561297,669.8294465001673,None,670.7774449000135,None,,,,,,,,,,,,,,,,,,,,,,,,,,,,,,,,,,41,Male,23,001,2021_Mar_10_1833,cal_abstract,2020.2.4,60.06226066387826,
,,,,Fix2,stimuli/Wealth/17.jpg,right,,,,,,,,,,,,0,3,3,3,,,,,,,,,,,,,,,,,,,,,,,,,,,,,,,,,,,,,,,,0,,,,,,,,,,,,,,,,,,,,,,,,,671.5697655002587,None,671.5697655002587,None,left,0,1.985597399994731,671.5697655002587,None,673.5848381998949,None,,,,,,,,,,,,,,,,,,,,,,,,,,,,,,,,,,41,Male,23,001,2021_Mar_10_1833,cal_abstract,2020.2.4,60.06226066387826,
,,,,Cond,stimuli/Dangerous/36.jpg,left,,,,,,,,,,,,0,4,4,4,,,,,,,,,,,,,,,,,,,,,,,,,,,,,,,,,,,,,,,,1,,,,,,,,,,,,,,,,,,,,,,,,,674.3536470001563,None,674.3536470001563,None,left,1,2.7507792999967933,674.3536470001563,None,677.1264482000843,None,,,,,,,,,,,,,,,,,,,,,,,,,,,,,,,,,,41,Male,23,001,2021_Mar_10_1833,cal_abstract,2020.2.4,60.06226066387826,
,,,,Fix2,stimuli/Wealth/35.jpg,right,,,,,,,,,,,,0,5,5,5,,,,,,,,,,,,,,,,,,,,,,,,,,,,,,,,,,,,,,,,1,,,,,,,,,,,,,,,,,,,,,,,,,677.9096273002215,None,677.9096273002215,None,right,1,2.4445960000157356,677.9096273002215,None,680.3701423001476,None,,,,,,,,,,,,,,,,,,,,,,,,,,,,,,,,,,41,Male,23,001,2021_Mar_10_1833,cal_abstract,2020.2.4,60.06226066387826,
,,,,Cond,stimuli/Dangerous/20.jpg,left,,,,,,,,,,,,0,6,6,6,,,,,,,,,,,,,,,,,,,,,,,,,,,,,,,,,,,,,,,,1,,,,,,,,,,,,,,,,,,,,,,,,,681.1539010000415,None,681.1539010000415,None,left,1,1.2774573997594416,681.1539010000415,None,682.4529960998334,None,,,,,,,,,,,,,,,,,,,,,,,,,,,,,,,,,,41,Male,23,001,2021_Mar_10_1833,cal_abstract,2020.2.4,60.06226066387826,
,,,,Fix2,stimuli/Wealth/22.jpg,right,,,,,,,,,,,,0,7,7,7,,,,,,,,,,,,,,,,,,,,,,,,,,,,,,,,,,,,,,,,1,,,,,,,,,,,,,,,,,,,,,,,,,683.2580262999982,None,683.2580262999982,None,right,1,3.401708099991083,683.2580262999982,None,686.6814596001059,None,,,,,,,,,,,,,,,,,,,,,,,,,,,,,,,,,,41,Male,23,001,2021_Mar_10_1833,cal_abstract,2020.2.4,60.06226066387826,
,,,,Fix1,stimuli/Old/10.jpg,left,,,,,,,,,,,,0,8,8,8,,,,,,,,,,,,,,,,,,,,,,,,,,,,,,,,,,,,,,,,1,,,,,,,,,,,,,,,,,,,,,,,,,687.4479938000441,None,687.4479938000441,None,left,1,2.171743799932301,687.4479938000441,None,689.6449553999119,None,,,,,,,,,,,,,,,,,,,,,,,,,,,,,,,,,,41,Male,23,001,2021_Mar_10_1833,cal_abstract,2020.2.4,60.06226066387826,
,,,,Cond,stimuli/Dangerous/43.jpg,right,,,,,,,,,,,,0,9,9,9,,,,,,,,,,,,,,,,,,,,,,,,,,,,,,,,,,,,,,,,0,,,,,,,,,,,,,,,,,,,,,,,,,690.4260708000511,None,690.4260708000511,None,left,0,2.640860800165683,690.4260708000511,None,693.0971079999581,None,,,,,,,,,,,,,,,,,,,,,,,,,,,,,,,,,,41,Male,23,001,2021_Mar_10_1833,cal_abstract,2020.2.4,60.06226066387826,
,,,,Fix2,stimuli/Wealth/49.jpg,right,,,,,,,,,,,,0,10,10,10,,,,,,,,,,,,,,,,,,,,,,,,,,,,,,,,,,,,,,,,1,,,,,,,,,,,,,,,,,,,,,,,,,693.879234699998,None,693.879234699998,None,right,1,4.831235900055617,693.879234699998,None,698.7417179001495,None,,,,,,,,,,,,,,,,,,,,,,,,,,,,,,,,,,41,Male,23,001,2021_Mar_10_1833,cal_abstract,2020.2.4,60.06226066387826,
,,,,Cond,stimuli/Dangerous/44.jpg,left,,,,,,,,,,,,0,11,11,11,,,,,,,,,,,,,,,,,,,,,,,,,,,,,,,,,,,,,,,,1,,,,,,,,,,,,,,,,,,,,,,,,,699.5150712998584,None,699.5150712998584,None,left,1,1.890964100137353,699.5150712998584,None,701.4353824001737,None,,,,,,,,,,,,,,,,,,,,,,,,,,,,,,,,,,41,Male,23,001,2021_Mar_10_1833,cal_abstract,2020.2.4,60.06226066387826,
,,,,Fix1,stimuli/Old/52.jpg,left,,,,,,,,,,,,0,12,12,12,,,,,,,,,,,,,,,,,,,,,,,,,,,,,,,,,,,,,,,,1,,,,,,,,,,,,,,,,,,,,,,,,,702.2192669999786,None,702.2192669999786,None,left,1,2.85437719989568,702.2192669999786,None,705.0992280002683,None,,,,,,,,,,,,,,,,,,,,,,,,,,,,,,,,,,41,Male,23,001,2021_Mar_10_1833,cal_abstract,2020.2.4,60.06226066387826,
,,,,Fix1,stimuli/Old/29.jpg,left,,,,,,,,,,,,0,13,13,13,,,,,,,,,,,,,,,,,,,,,,,,,,,,,,,,,,,,,,,,1,,,,,,,,,,,,,,,,,,,,,,,,,705.8775957999751,None,705.8775957999751,None,left,1,1.2264287997968495,705.8775957999751,None,707.1312231998891,None,,,,,,,,,,,,,,,,,,,,,,,,,,,,,,,,,,41,Male,23,001,2021_Mar_10_1833,cal_abstract,2020.2.4,60.06226066387826,
,,,,Fix1,stimuli/Old/6.jpg,left,,,,,,,,,,,,0,14,14,14,,,,,,,,,,,,,,,,,,,,,,,,,,,,,,,,,,,,,,,,0,,,,,,,,,,,,,,,,,,,,,,,,,707.901390099898,None,707.901390099898,None,right,0,1.214646500069648,707.901390099898,None,709.1558908000588,None,,,,,,,,,,,,,,,,,,,,,,,,,,,,,,,,,,41,Male,23,001,2021_Mar_10_1833,cal_abstract,2020.2.4,60.06226066387826,
,,,,Fix2,stimuli/Wealth/45.jpg,right,,,,,,,,,,,,0,15,15,15,,,,,,,,,,,,,,,,,,,,,,,,,,,,,,,,,,,,,,,,0,,,,,,,,,,,,,,,,,,,,,,,,,709.9428610000759,None,709.9428610000759,None,left,0,2.5799166997894645,709.9428610000759,None,712.5426818002015,None,,,,,,,,,,,,,,,,,,,,,,,,,,,,,,,,,,41,Male,23,001,2021_Mar_10_1833,cal_abstract,2020.2.4,60.06226066387826,
,,,,Fix2,stimuli/Wealth/28.jpg,right,,,,,,,,,,,,0,16,16,16,,,,,,,,,,,,,,,,,,,,,,,,,,,,,,,,,,,,,,,,1,,,,,,,,,,,,,,,,,,,,,,,,,713.3174368999898,None,713.3174368999898,None,right,1,2.78672800026834,713.3174368999898,None,716.1364656998776,None,,,,,,,,,,,,,,,,,,,,,,,,,,,,,,,,,,41,Male,23,001,2021_Mar_10_1833,cal_abstract,2020.2.4,60.06226066387826,
,,,,Cond,stimuli/Dangerous/28.jpg,left,,,,,,,,,,,,0,17,17,17,,,,,,,,,,,,,,,,,,,,,,,,,,,,,,,,,,,,,,,,1,,,,,,,,,,,,,,,,,,,,,,,,,716.913647599984,None,716.913647599984,None,left,1,1.2776584001258016,716.913647599984,None,718.2218124000356,None,,,,,,,,,,,,,,,,,,,,,,,,,,,,,,,,,,41,Male,23,001,2021_Mar_10_1833,cal_abstract,2020.2.4,60.06226066387826,
,,,,Fix1,stimuli/Old/13.jpg,left,,,,,,,,,,,,0,18,18,18,,,,,,,,,,,,,,,,,,,,,,,,,,,,,,,,,,,,,,,,1,,,,,,,,,,,,,,,,,,,,,,,,,718.9982850002125,None,718.9982850002125,None,left,1,1.1795121999457479,718.9982850002125,None,720.2038229000755,None,,,,,,,,,,,,,,,,,,,,,,,,,,,,,,,,,,41,Male,23,001,2021_Mar_10_1833,cal_abstract,2020.2.4,60.06226066387826,
,,,,Cond,stimuli/Dangerous/56.jpg,right,,,,,,,,,,,,0,19,19,19,,,,,,,,,,,,,,,,,,,,,,,,,,,,,,,,,,,,,,,,1,,,,,,,,,,,,,,,,,,,,,,,,,720.9677650001831,None,720.9677650001831,None,right,1,1.0833100997842848,720.9677650001831,None,722.0687768999487,None,,,,,,,,,,,,,,,,,,,,,,,,,,,,,,,,,,41,Male,23,001,2021_Mar_10_1833,cal_abstract,2020.2.4,60.06226066387826,
,,,,Fix2,stimuli/Wealth/55.jpg,right,,,,,,,,,,,,0,20,20,20,,,,,,,,,,,,,,,,,,,,,,,,,,,,,,,,,,,,,,,,1,,,,,,,,,,,,,,,,,,,,,,,,,722.8431910001673,None,722.8431910001673,None,right,1,0.9554897998459637,722.8431910001673,None,723.8177265999839,None,,,,,,,,,,,,,,,,,,,,,,,,,,,,,,,,,,41,Male,23,001,2021_Mar_10_1833,cal_abstract,2020.2.4,60.06226066387826,
,,,,Cond,stimuli/Dangerous/22.jpg,left,,,,,,,,,,,,0,21,21,21,,,,,,,,,,,,,,,,,,,,,,,,,,,,,,,,,,,,,,,,1,,,,,,,,,,,,,,,,,,,,,,,,,724.5929638999514,None,724.5929638999514,None,left,1,1.069367399904877,724.5929638999514,None,725.6866584001109,None,,,,,,,,,,,,,,,,,,,,,,,,,,,,,,,,,,41,Male,23,001,2021_Mar_10_1833,cal_abstract,2020.2.4,60.06226066387826,
,,,,Fix1,stimuli/Old/9.jpg,left,,,,,,,,,,,,0,22,22,22,,,,,,,,,,,,,,,,,,,,,,,,,,,,,,,,,,,,,,,,1,,,,,,,,,,,,,,,,,,,,,,,,,726.471249199938,None,726.471249199938,None,left,1,1.597622100263834,726.471249199938,None,728.1004808000289,None,,,,,,,,,,,,,,,,,,,,,,,,,,,,,,,,,,41,Male,23,001,2021_Mar_10_1833,cal_abstract,2020.2.4,60.06226066387826,
,,,,Fix2,stimuli/Wealth/18.jpg,right,,,,,,,,,,,,0,23,23,23,,,,,,,,,,,,,,,,,,,,,,,,,,,,,,,,,,,,,,,,1,,,,,,,,,,,,,,,,,,,,,,,,,728.8908786000684,None,728.8908786000684,None,right,1,1.586963600013405,728.8908786000684,None,730.4953560000286,None,,,,,,,,,,,,,,,,,,,,,,,,,,,,,,,,,,41,Male,23,001,2021_Mar_10_1833,cal_abstract,2020.2.4,60.06226066387826,
,,,,Fix1,stimuli/Old/24.jpg,left,,,,,,,,,,,,0,24,24,24,,,,,,,,,,,,,,,,,,,,,,,,,,,,,,,,,,,,,,,,1,,,,,,,,,,,,,,,,,,,,,,,,,731.2588741001673,None,731.2588741001673,None,left,1,1.8763907998800278,731.2588741001673,None,733.1598648000509,None,,,,,,,,,,,,,,,,,,,,,,,,,,,,,,,,,,41,Male,23,001,2021_Mar_10_1833,cal_abstract,2020.2.4,60.06226066387826,
,,,,Cond,stimuli/Dangerous/7.jpg,right,,,,,,,,,,,,0,25,25,25,,,,,,,,,,,,,,,,,,,,,,,,,,,,,,,,,,,,,,,,1,,,,,,,,,,,,,,,,,,,,,,,,,733.9238093001768,None,733.9238093001768,None,right,1,1.5321801998652518,733.9238093001768,None,735.4733641999774,None,,,,,,,,,,,,,,,,,,,,,,,,,,,,,,,,,,41,Male,23,001,2021_Mar_10_1833,cal_abstract,2020.2.4,60.06226066387826,
,,,,Fix1,stimuli/Old/26.jpg,left,,,,,,,,,,,,0,26,26,26,,,,,,,,,,,,,,,,,,,,,,,,,,,,,,,,,,,,,,,,1,,,,,,,,,,,,,,,,,,,,,,,,,736.2432218999602,None,736.2432218999602,None,left,1,6.379427700303495,736.2432218999602,None,742.6521251001395,None,,,,,,,,,,,,,,,,,,,,,,,,,,,,,,,,,,41,Male,23,001,2021_Mar_10_1833,cal_abstract,2020.2.4,60.06226066387826,
,,,,Fix1,stimuli/Old/55.jpg,left,,,,,,,,,,,,0,27,27,27,,,,,,,,,,,,,,,,,,,,,,,,,,,,,,,,,,,,,,,,1,,,,,,,,,,,,,,,,,,,,,,,,,743.4471805999056,None,743.4471805999056,None,left,1,0.9749342002905905,743.4471805999056,None,744.4505888000131,None,,,,,,,,,,,,,,,,,,,,,,,,,,,,,,,,,,41,Male,23,001,2021_Mar_10_1833,cal_abstract,2020.2.4,60.06226066387826,
,,,,Fix1,stimuli/Old/38.jpg,left,,,,,,,,,,,,0,28,28,28,,,,,,,,,,,,,,,,,,,,,,,,,,,,,,,,,,,,,,,,1,,,,,,,,,,,,,,,,,,,,,,,,,745.2317912001163,None,745.2317912001163,None,left,1,1.0012679998762906,745.2317912001163,None,746.2479660999961,None,,,,,,,,,,,,,,,,,,,,,,,,,,,,,,,,,,41,Male,23,001,2021_Mar_10_1833,cal_abstract,2020.2.4,60.06226066387826,
,,,,Fix2,stimuli/Wealth/23.jpg,right,,,,,,,,,,,,0,29,29,29,,,,,,,,,,,,,,,,,,,,,,,,,,,,,,,,,,,,,,,,1,,,,,,,,,,,,,,,,,,,,,,,,,747.019479200244,None,747.019479200244,None,right,1,2.577819500118494,747.019479200244,None,749.6128468001261,None,,,,,,,,,,,,,,,,,,,,,,,,,,,,,,,,,,41,Male,23,001,2021_Mar_10_1833,cal_abstract,2020.2.4,60.06226066387826,
,,,,Fix1,stimuli/Old/3.jpg,left,,,,,,,,,,,,0,30,30,30,,,,,,,,,,,,,,,,,,,,,,,,,,,,,,,,,,,,,,,,1,,,,,,,,,,,,,,,,,,,,,,,,,750.3858130001463,None,750.3858130001463,None,left,1,1.4489329000934958,750.3858130001463,None,751.8610995002091,None,,,,,,,,,,,,,,,,,,,,,,,,,,,,,,,,,,41,Male,23,001,2021_Mar_10_1833,cal_abstract,2020.2.4,60.06226066387826,
,,,,Fix1,stimuli/Old/50.jpg,left,,,,,,,,,,,,0,31,31,31,,,,,,,,,,,,,,,,,,,,,,,,,,,,,,,,,,,,,,,,0,,,,,,,,,,,,,,,,,,,,,,,,,752.6284218002111,None,752.6284218002111,None,right,0,2.734653199557215,752.6284218002111,None,755.3954989998601,None,,,,,,,,,,,,,,,,,,,,,,,,,,,,,,,,,,41,Male,23,001,2021_Mar_10_1833,cal_abstract,2020.2.4,60.06226066387826,
,,,,Fix2,stimuli/Wealth/4.jpg,right,,,,,,,,,,,,0,32,32,32,,,,,,,,,,,,,,,,,,,,,,,,,,,,,,,,,,,,,,,,0,,,,,,,,,,,,,,,,,,,,,,,,,756.1778445998207,None,756.1778445998207,None,left,0,2.4221871001645923,756.1778445998207,None,758.6223407001235,None,,,,,,,,,,,,,,,,,,,,,,,,,,,,,,,,,,41,Male,23,001,2021_Mar_10_1833,cal_abstract,2020.2.4,60.06226066387826,
,,,,Cond,stimuli/Dangerous/0.jpg,left,,,,,,,,,,,,0,33,33,33,,,,,,,,,,,,,,,,,,,,,,,,,,,,,,,,,,,,,,,,1,,,,,,,,,,,,,,,,,,,,,,,,,759.3855717000552,None,759.3855717000552,None,left,1,1.9068495002575219,759.3855717000552,None,761.3241639998741,None,,,,,,,,,,,,,,,,,,,,,,,,,,,,,,,,,,41,Male,23,001,2021_Mar_10_1833,cal_abstract,2020.2.4,60.06226066387826,
,,,,Cond,stimuli/Dangerous/8.jpg,right,,,,,,,,,,,,0,34,34,34,,,,,,,,,,,,,,,,,,,,,,,,,,,,,,,,,,,,,,,,1,,,,,,,,,,,,,,,,,,,,,,,,,762.1274915998802,None,762.1274915998802,None,right,1,1.298330900259316,762.1274915998802,None,763.4516019001603,None,,,,,,,,,,,,,,,,,,,,,,,,,,,,,,,,,,41,Male,23,001,2021_Mar_10_1833,cal_abstract,2020.2.4,60.06226066387826,
,,,,Fix2,stimuli/Wealth/40.jpg,right,,,,,,,,,,,,0,35,35,35,,,,,,,,,,,,,,,,,,,,,,,,,,,,,,,,,,,,,,,,1,,,,,,,,,,,,,,,,,,,,,,,,,764.2316399998963,None,764.2316399998963,None,right,1,1.2777809998951852,764.2316399998963,None,765.5351022998802,None,,,,,,,,,,,,,,,,,,,,,,,,,,,,,,,,,,41,Male,23,001,2021_Mar_10_1833,cal_abstract,2020.2.4,60.06226066387826,
,,,,Cond,stimuli/Dangerous/26.jpg,left,,,,,,,,,,,,0,36,36,36,,,,,,,,,,,,,,,,,,,,,,,,,,,,,,,,,,,,,,,,1,,,,,,,,,,,,,,,,,,,,,,,,,766.3214620002545,None,766.3214620002545,None,left,1,1.4692277000285685,766.3214620002545,None,767.8138104998507,None,,,,,,,,,,,,,,,,,,,,,,,,,,,,,,,,,,41,Male,23,001,2021_Mar_10_1833,cal_abstract,2020.2.4,60.06226066387826,
,,,,Cond,stimuli/Dangerous/57.jpg,right,,,,,,,,,,,,0,37,37,37,,,,,,,,,,,,,,,,,,,,,,,,,,,,,,,,,,,,,,,,1,,,,,,,,,,,,,,,,,,,,,,,,,768.5783314001746,None,768.5783314001746,None,right,1,1.3173541999422014,768.5783314001746,None,769.9129154002294,None,,,,,,,,,,,,,,,,,,,,,,,,,,,,,,,,,,41,Male,23,001,2021_Mar_10_1833,cal_abstract,2020.2.4,60.06226066387826,
,,,,Fix2,stimuli/Wealth/13.jpg,right,,,,,,,,,,,,0,38,38,38,,,,,,,,,,,,,,,,,,,,,,,,,,,,,,,,,,,,,,,,1,,,,,,,,,,,,,,,,,,,,,,,,,770.6920707002282,None,770.6920707002282,None,right,1,3.3398102996870875,770.6920707002282,None,774.0596385002136,None,,,,,,,,,,,,,,,,,,,,,,,,,,,,,,,,,,41,Male,23,001,2021_Mar_10_1833,cal_abstract,2020.2.4,60.06226066387826,
,,,,Cond,stimuli/Dangerous/21.jpg,left,,,,,,,,,,,,0,39,39,39,,,,,,,,,,,,,,,,,,,,,,,,,,,,,,,,,,,,,,,,1,,,,,,,,,,,,,,,,,,,,,,,,,774.8339335001074,None,774.8339335001074,None,left,1,15.981811800040305,774.8339335001074,None,790.8489518002607,None,,,,,,,,,,,,,,,,,,,,,,,,,,,,,,,,,,41,Male,23,001,2021_Mar_10_1833,cal_abstract,2020.2.4,60.06226066387826,
,,,,Fix1,stimuli/Old/43.jpg,left,,,,,,,,,,,,0,40,40,40,,,,,,,,,,,,,,,,,,,,,,,,,,,,,,,,,,,,,,,,1,,,,,,,,,,,,,,,,,,,,,,,,,791.6485027000308,None,791.6485027000308,None,left,1,1.7206546999514103,791.6485027000308,None,793.3965616999194,None,,,,,,,,,,,,,,,,,,,,,,,,,,,,,,,,,,41,Male,23,001,2021_Mar_10_1833,cal_abstract,2020.2.4,60.06226066387826,
,,,,Fix1,stimuli/Old/40.jpg,left,,,,,,,,,,,,0,41,41,41,,,,,,,,,,,,,,,,,,,,,,,,,,,,,,,,,,,,,,,,1,,,,,,,,,,,,,,,,,,,,,,,,,794.222135100048,None,794.222135100048,None,left,1,0.7327858000062406,794.222135100048,None,794.9763376000337,None,,,,,,,,,,,,,,,,,,,,,,,,,,,,,,,,,,41,Male,23,001,2021_Mar_10_1833,cal_abstract,2020.2.4,60.06226066387826,
,,,,Fix2,stimuli/Wealth/10.jpg,right,,,,,,,,,,,,0,42,42,42,,,,,,,,,,,,,,,,,,,,,,,,,,,,,,,,,,,,,,,,1,,,,,,,,,,,,,,,,,,,,,,,,,795.7770056999288,None,795.7770056999288,None,right,1,0.8395112999714911,795.7770056999288,None,796.6410477999598,None,,,,,,,,,,,,,,,,,,,,,,,,,,,,,,,,,,41,Male,23,001,2021_Mar_10_1833,cal_abstract,2020.2.4,60.06226066387826,
,,,,Fix1,stimuli/Old/0.jpg,left,,,,,,,,,,,,0,43,43,43,,,,,,,,,,,,,,,,,,,,,,,,,,,,,,,,,,,,,,,,1,,,,,,,,,,,,,,,,,,,,,,,,,797.401358500123,None,797.401358500123,None,left,1,1.3044454003684223,797.401358500123,None,798.7248585000634,None,,,,,,,,,,,,,,,,,,,,,,,,,,,,,,,,,,41,Male,23,001,2021_Mar_10_1833,cal_abstract,2020.2.4,60.06226066387826,
,,,,Cond,stimuli/Dangerous/41.jpg,right,,,,,,,,,,,,0,44,44,44,,,,,,,,,,,,,,,,,,,,,,,,,,,,,,,,,,,,,,,,1,,,,,,,,,,,,,,,,,,,,,,,,,799.5131347002462,None,799.5131347002462,None,right,1,4.374777300283313,799.5131347002462,None,803.9173522000201,None,,,,,,,,,,,,,,,,,,,,,,,,,,,,,,,,,,41,Male,23,001,2021_Mar_10_1833,cal_abstract,2020.2.4,60.06226066387826,
,,,,Fix1,stimuli/Old/1.jpg,left,,,,,,,,,,,,0,45,45,45,,,,,,,,,,,,,,,,,,,,,,,,,,,,,,,,,,,,,,,,1,,,,,,,,,,,,,,,,,,,,,,,,,804.6810222999193,None,804.6810222999193,None,left,1,3.2892370000481606,804.6810222999193,None,807.9983940999955,None,,,,,,,,,,,,,,,,,,,,,,,,,,,,,,,,,,41,Male,23,001,2021_Mar_10_1833,cal_abstract,2020.2.4,60.06226066387826,
,,,,Fix1,stimuli/Old/45.jpg,left,,,,,,,,,,,,0,46,46,46,,,,,,,,,,,,,,,,,,,,,,,,,,,,,,,,,,,,,,,,0,,,,,,,,,,,,,,,,,,,,,,,,,808.7790228002705,None,808.7790228002705,None,right,0,2.507375300396234,808.7790228002705,None,811.3147574998438,None,,,,,,,,,,,,,,,,,,,,,,,,,,,,,,,,,,41,Male,23,001,2021_Mar_10_1833,cal_abstract,2020.2.4,60.06226066387826,
,,,,Cond,stimuli/Dangerous/45.jpg,right,,,,,,,,,,,,0,47,47,47,,,,,,,,,,,,,,,,,,,,,,,,,,,,,,,,,,,,,,,,0,,,,,,,,,,,,,,,,,,,,,,,,,812.1065354999155,None,812.1065354999155,None,left,0,7.75454210024327,812.1065354999155,None,819.8885488999076,None,,,,,,,,,,,,,,,,,,,,,,,,,,,,,,,,,,41,Male,23,001,2021_Mar_10_1833,cal_abstract,2020.2.4,60.06226066387826,
,,,,Fix1,stimuli/Old/17.jpg,left,,,,,,,,,,,,0,48,48,48,,,,,,,,,,,,,,,,,,,,,,,,,,,,,,,,,,,,,,,,1,,,,,,,,,,,,,,,,,,,,,,,,,820.6808597999625,None,820.6808597999625,None,left,1,1.4090807000175118,820.6808597999625,None,822.1295392001048,None,,,,,,,,,,,,,,,,,,,,,,,,,,,,,,,,,,41,Male,23,001,2021_Mar_10_1833,cal_abstract,2020.2.4,60.06226066387826,
,,,,Cond,stimuli/Dangerous/47.jpg,right,,,,,,,,,,,,0,49,49,49,,,,,,,,,,,,,,,,,,,,,,,,,,,,,,,,,,,,,,,,1,,,,,,,,,,,,,,,,,,,,,,,,,822.9328838000074,None,822.9328838000074,None,right,1,1.4139280999079347,822.9328838000074,None,824.3679965999909,None,,,,,,,,,,,,,,,,,,,,,,,,,,,,,,,,,,41,Male,23,001,2021_Mar_10_1833,cal_abstract,2020.2.4,60.06226066387826,
,,,,Fix2,stimuli/Wealth/25.jpg,right,,,,,,,,,,,,0,50,50,50,,,,,,,,,,,,,,,,,,,,,,,,,,,,,,,,,,,,,,,,1,,,,,,,,,,,,,,,,,,,,,,,,,825.1499513001181,None,825.1499513001181,None,right,1,3.984534699935466,825.1499513001181,None,829.1639653998427,None,,,,,,,,,,,,,,,,,,,,,,,,,,,,,,,,,,41,Male,23,001,2021_Mar_10_1833,cal_abstract,2020.2.4,60.06226066387826,
,,,,Cond,stimuli/Dangerous/35.jpg,left,,,,,,,,,,,,0,51,51,51,,,,,,,,,,,,,,,,,,,,,,,,,,,,,,,,,,,,,,,,1,,,,,,,,,,,,,,,,,,,,,,,,,829.936998500023,None,829.936998500023,None,left,1,12.592787500005215,829.936998500023,None,842.552846999839,None,,,,,,,,,,,,,,,,,,,,,,,,,,,,,,,,,,41,Male,23,001,2021_Mar_10_1833,cal_abstract,2020.2.4,60.06226066387826,
,,,,Cond,stimuli/Dangerous/49.jpg,right,,,,,,,,,,,,0,52,52,52,,,,,,,,,,,,,,,,,,,,,,,,,,,,,,,,,,,,,,,,1,,,,,,,,,,,,,,,,,,,,,,,,,843.3618287998252,None,843.3618287998252,None,right,1,1.582938500214368,843.3618287998252,None,844.9677456999198,None,,,,,,,,,,,,,,,,,,,,,,,,,,,,,,,,,,41,Male,23,001,2021_Mar_10_1833,cal_abstract,2020.2.4,60.06226066387826,
,,,,Fix2,stimuli/Wealth/6.jpg,right,,,,,,,,,,,,0,53,53,53,,,,,,,,,,,,,,,,,,,,,,,,,,,,,,,,,,,,,,,,1,,,,,,,,,,,,,,,,,,,,,,,,,845.743866099976,None,845.743866099976,None,right,1,0.653844399843365,845.743866099976,None,846.4172649998218,None,,,,,,,,,,,,,,,,,,,,,,,,,,,,,,,,,,41,Male,23,001,2021_Mar_10_1833,cal_abstract,2020.2.4,60.06226066387826,
,,,,Fix1,stimuli/Old/51.jpg,left,,,,,,,,,,,,0,54,54,54,,,,,,,,,,,,,,,,,,,,,,,,,,,,,,,,,,,,,,,,1,,,,,,,,,,,,,,,,,,,,,,,,,847.2316585001536,None,847.2316585001536,None,left,1,0.7320516998879611,847.2316585001536,None,847.9822252001613,None,,,,,,,,,,,,,,,,,,,,,,,,,,,,,,,,,,41,Male,23,001,2021_Mar_10_1833,cal_abstract,2020.2.4,60.06226066387826,
,,,,Fix1,stimuli/Old/44.jpg,left,,,,,,,,,,,,0,55,55,55,,,,,,,,,,,,,,,,,,,,,,,,,,,,,,,,,,,,,,,,1,,,,,,,,,,,,,,,,,,,,,,,,,848.7460989998654,None,848.7460989998654,None,left,1,2.2284336001612246,848.7460989998654,None,850.9967744001187,None,,,,,,,,,,,,,,,,,,,,,,,,,,,,,,,,,,41,Male,23,001,2021_Mar_10_1833,cal_abstract,2020.2.4,60.06226066387826,
,,,,Cond,stimuli/Dangerous/13.jpg,right,,,,,,,,,,,,0,56,56,56,,,,,,,,,,,,,,,,,,,,,,,,,,,,,,,,,,,,,,,,1,,,,,,,,,,,,,,,,,,,,,,,,,851.762624300085,None,851.762624300085,None,right,1,3.9307640003971756,851.762624300085,None,855.7088386001997,None,,,,,,,,,,,,,,,,,,,,,,,,,,,,,,,,,,41,Male,23,001,2021_Mar_10_1833,cal_abstract,2020.2.4,60.06226066387826,
,,,,Fix2,stimuli/Wealth/48.jpg,right,,,,,,,,,,,,0,57,57,57,,,,,,,,,,,,,,,,,,,,,,,,,,,,,,,,,,,,,,,,1,,,,,,,,,,,,,,,,,,,,,,,,,856.4809448998421,None,856.4809448998421,None,right,1,2.2573200003243983,856.4809448998421,None,858.7563419002108,None,,,,,,,,,,,,,,,,,,,,,,,,,,,,,,,,,,41,Male,23,001,2021_Mar_10_1833,cal_abstract,2020.2.4,60.06226066387826,
,,,,Fix1,stimuli/Old/32.jpg,left,,,,,,,,,,,,0,58,58,58,,,,,,,,,,,,,,,,,,,,,,,,,,,,,,,,,,,,,,,,1,,,,,,,,,,,,,,,,,,,,,,,,,859.5351146999747,None,859.5351146999747,None,left,1,0.822936899960041,859.5351146999747,None,860.3882960998453,None,,,,,,,,,,,,,,,,,,,,,,,,,,,,,,,,,,41,Male,23,001,2021_Mar_10_1833,cal_abstract,2020.2.4,60.06226066387826,
,,,,Fix1,stimuli/Old/12.jpg,left,,,,,,,,,,,,0,59,59,59,,,,,,,,,,,,,,,,,,,,,,,,,,,,,,,,,,,,,,,,1,,,,,,,,,,,,,,,,,,,,,,,,,861.1522145001218,None,861.1522145001218,None,left,1,1.6248415997251868,861.1522145001218,None,862.8028219998814,None,,,,,,,,,,,,,,,,,,,,,,,,,,,,,,,,,,41,Male,23,001,2021_Mar_10_1833,cal_abstract,2020.2.4,60.06226066387826,
,,,,Fix1,stimuli/Old/4.jpg,left,,,,,,,,,,,,0,60,60,60,,,,,,,,,,,,,,,,,,,,,,,,,,,,,,,,,,,,,,,,1,,,,,,,,,,,,,,,,,,,,,,,,,863.5879314998165,None,863.5879314998165,None,left,1,1.4481219998560846,863.5879314998165,None,865.0539918998256,None,,,,,,,,,,,,,,,,,,,,,,,,,,,,,,,,,,41,Male,23,001,2021_Mar_10_1833,cal_abstract,2020.2.4,60.06226066387826,
,,,,Fix1,stimuli/Old/19.jpg,left,,,,,,,,,,,,0,61,61,61,,,,,,,,,,,,,,,,,,,,,,,,,,,,,,,,,,,,,,,,1,,,,,,,,,,,,,,,,,,,,,,,,,865.8329413998872,None,865.8329413998872,None,left,1,0.8748107999563217,865.8329413998872,None,866.73275140021,None,,,,,,,,,,,,,,,,,,,,,,,,,,,,,,,,,,41,Male,23,001,2021_Mar_10_1833,cal_abstract,2020.2.4,60.06226066387826,
,,,,Cond,stimuli/Dangerous/17.jpg,right,,,,,,,,,,,,0,62,62,62,,,,,,,,,,,,,,,,,,,,,,,,,,,,,,,,,,,,,,,,1,,,,,,,,,,,,,,,,,,,,,,,,,867.5079866000451,None,867.5079866000451,None,right,1,1.1849537999369204,867.5079866000451,None,868.7176712998189,None,,,,,,,,,,,,,,,,,,,,,,,,,,,,,,,,,,41,Male,23,001,2021_Mar_10_1833,cal_abstract,2020.2.4,60.06226066387826,
,,,,Cond,stimuli/Dangerous/59.jpg,left,,,,,,,,,,,,0,63,63,63,,,,,,,,,,,,,,,,,,,,,,,,,,,,,,,,,,,,,,,,1,,,,,,,,,,,,,,,,,,,,,,,,,869.5223893001676,None,869.5223893001676,None,left,1,0.9379329001531005,869.5223893001676,None,870.4799954001792,None,,,,,,,,,,,,,,,,,,,,,,,,,,,,,,,,,,41,Male,23,001,2021_Mar_10_1833,cal_abstract,2020.2.4,60.06226066387826,
,,,,Cond,stimuli/Dangerous/27.jpg,right,,,,,,,,,,,,0,64,64,64,,,,,,,,,,,,,,,,,,,,,,,,,,,,,,,,,,,,,,,,1,,,,,,,,,,,,,,,,,,,,,,,,,871.2417807998136,None,871.2417807998136,None,right,1,0.8467886997386813,871.2417807998136,None,872.1128533999436,None,,,,,,,,,,,,,,,,,,,,,,,,,,,,,,,,,,41,Male,23,001,2021_Mar_10_1833,cal_abstract,2020.2.4,60.06226066387826,
,,,,Cond,stimuli/Dangerous/3.jpg,left,,,,,,,,,,,,0,65,65,65,,,,,,,,,,,,,,,,,,,,,,,,,,,,,,,,,,,,,,,,1,,,,,,,,,,,,,,,,,,,,,,,,,872.9160167002119,None,872.9160167002119,None,left,1,1.5498790997080505,872.9160167002119,None,874.4964200998656,None,,,,,,,,,,,,,,,,,,,,,,,,,,,,,,,,,,41,Male,23,001,2021_Mar_10_1833,cal_abstract,2020.2.4,60.06226066387826,
,,,,Fix2,stimuli/Wealth/29.jpg,right,,,,,,,,,,,,0,66,66,66,,,,,,,,,,,,,,,,,,,,,,,,,,,,,,,,,,,,,,,,1,,,,,,,,,,,,,,,,,,,,,,,,,875.2778527000919,None,875.2778527000919,None,right,1,1.0106704998761415,875.2778527000919,None,876.308632500004,None,,,,,,,,,,,,,,,,,,,,,,,,,,,,,,,,,,41,Male,23,001,2021_Mar_10_1833,cal_abstract,2020.2.4,60.06226066387826,
,,,,Fix1,stimuli/Old/22.jpg,left,,,,,,,,,,,,0,67,67,67,,,,,,,,,,,,,,,,,,,,,,,,,,,,,,,,,,,,,,,,1,,,,,,,,,,,,,,,,,,,,,,,,,877.0713983001187,None,877.0713983001187,None,left,1,3.750691299792379,877.0713983001187,None,880.8382346001454,None,,,,,,,,,,,,,,,,,,,,,,,,,,,,,,,,,,41,Male,23,001,2021_Mar_10_1833,cal_abstract,2020.2.4,60.06226066387826,
,,,,Fix1,stimuli/Old/54.jpg,left,,,,,,,,,,,,0,68,68,68,,,,,,,,,,,,,,,,,,,,,,,,,,,,,,,,,,,,,,,,0,,,,,,,,,,,,,,,,,,,,,,,,,881.6014939001761,None,881.6014939001761,None,right,0,2.707476499956101,881.6014939001761,None,884.338563399855,None,,,,,,,,,,,,,,,,,,,,,,,,,,,,,,,,,,41,Male,23,001,2021_Mar_10_1833,cal_abstract,2020.2.4,60.06226066387826,
,,,,Fix1,stimuli/Old/20.jpg,left,,,,,,,,,,,,0,69,69,69,,,,,,,,,,,,,,,,,,,,,,,,,,,,,,,,,,,,,,,,1,,,,,,,,,,,,,,,,,,,,,,,,,885.136920100078,None,885.136920100078,None,left,1,1.4299980998039246,885.136920100078,None,886.5869505000301,None,,,,,,,,,,,,,,,,,,,,,,,,,,,,,,,,,,41,Male,23,001,2021_Mar_10_1833,cal_abstract,2020.2.4,60.06226066387826,
,,,,Cond,stimuli/Dangerous/24.jpg,right,,,,,,,,,,,,0,70,70,70,,,,,,,,,,,,,,,,,,,,,,,,,,,,,,,,,,,,,,,,1,,,,,,,,,,,,,,,,,,,,,,,,,887.3791869999841,None,887.3791869999841,None,right,1,0.892508199904114,887.3791869999841,None,888.303642900195,None,,,,,,,,,,,,,,,,,,,,,,,,,,,,,,,,,,41,Male,23,001,2021_Mar_10_1833,cal_abstract,2020.2.4,60.06226066387826,
,,,,Cond,stimuli/Dangerous/52.jpg,left,,,,,,,,,,,,0,71,71,71,,,,,,,,,,,,,,,,,,,,,,,,,,,,,,,,,,,,,,,,0,,,,,,,,,,,,,,,,,,,,,,,,,889.0885195001028,None,889.0885195001028,None,right,0,1.1088348999619484,889.0885195001028,None,890.2275995998643,None,,,,,,,,,,,,,,,,,,,,,,,,,,,,,,,,,,41,Male,23,001,2021_Mar_10_1833,cal_abstract,2020.2.4,60.06226066387826,
,,,,Fix2,stimuli/Wealth/7.jpg,right,,,,,,,,,,,,0,72,72,72,,,,,,,,,,,,,,,,,,,,,,,,,,,,,,,,,,,,,,,,0,,,,,,,,,,,,,,,,,,,,,,,,,891.0043921000324,None,891.0043921000324,None,left,0,0.8526561995968223,891.0043921000324,None,891.881681300234,None,,,,,,,,,,,,,,,,,,,,,,,,,,,,,,,,,,41,Male,23,001,2021_Mar_10_1833,cal_abstract,2020.2.4,60.06226066387826,
,,,,Fix2,stimuli/Wealth/59.jpg,right,,,,,,,,,,,,0,73,73,73,,,,,,,,,,,,,,,,,,,,,,,,,,,,,,,,,,,,,,,,1,,,,,,,,,,,,,,,,,,,,,,,,,892.6687925001606,None,892.6687925001606,None,right,1,0.7195776998996735,892.6687925001606,None,893.4207919002511,None,,,,,,,,,,,,,,,,,,,,,,,,,,,,,,,,,,41,Male,23,001,2021_Mar_10_1833,cal_abstract,2020.2.4,60.06226066387826,
,,,,Fix2,stimuli/Wealth/52.jpg,right,,,,,,,,,,,,0,74,74,74,,,,,,,,,,,,,,,,,,,,,,,,,,,,,,,,,,,,,,,,1,,,,,,,,,,,,,,,,,,,,,,,,,894.2085259002633,None,894.2085259002633,None,right,1,0.7803311999887228,894.2085259002633,None,895.0105873001739,None,,,,,,,,,,,,,,,,,,,,,,,,,,,,,,,,,,41,Male,23,001,2021_Mar_10_1833,cal_abstract,2020.2.4,60.06226066387826,
,,,,Fix2,stimuli/Wealth/50.jpg,right,,,,,,,,,,,,0,75,75,75,,,,,,,,,,,,,,,,,,,,,,,,,,,,,,,,,,,,,,,,0,,,,,,,,,,,,,,,,,,,,,,,,,895.7894108998589,None,895.7894108998589,None,left,0,1.0763950999826193,895.7894108998589,None,896.8991733998992,None,,,,,,,,,,,,,,,,,,,,,,,,,,,,,,,,,,41,Male,23,001,2021_Mar_10_1833,cal_abstract,2020.2.4,60.06226066387826,
,,,,Fix2,stimuli/Wealth/20.jpg,right,,,,,,,,,,,,0,76,76,76,,,,,,,,,,,,,,,,,,,,,,,,,,,,,,,,,,,,,,,,1,,,,,,,,,,,,,,,,,,,,,,,,,897.6680960999802,None,897.6680960999802,None,right,1,0.6297643999569118,897.6680960999802,None,898.3304309998639,None,,,,,,,,,,,,,,,,,,,,,,,,,,,,,,,,,,41,Male,23,001,2021_Mar_10_1833,cal_abstract,2020.2.4,60.06226066387826,
,,,,Fix1,stimuli/Old/59.jpg,left,,,,,,,,,,,,0,77,77,77,,,,,,,,,,,,,,,,,,,,,,,,,,,,,,,,,,,,,,,,1,,,,,,,,,,,,,,,,,,,,,,,,,899.0997871002182,None,899.0997871002182,None,left,1,1.0516094998456538,899.0997871002182,None,900.1723128999583,None,,,,,,,,,,,,,,,,,,,,,,,,,,,,,,,,,,41,Male,23,001,2021_Mar_10_1833,cal_abstract,2020.2.4,60.06226066387826,
,,,,Cond,stimuli/Dangerous/9.jpg,right,,,,,,,,,,,,0,78,78,78,,,,,,,,,,,,,,,,,,,,,,,,,,,,,,,,,,,,,,,,1,,,,,,,,,,,,,,,,,,,,,,,,,900.9332391000353,None,900.9332391000353,None,right,1,0.9028313998132944,900.9332391000353,None,901.8548161000945,None,,,,,,,,,,,,,,,,,,,,,,,,,,,,,,,,,,41,Male,23,001,2021_Mar_10_1833,cal_abstract,2020.2.4,60.06226066387826,
,,,,Cond,stimuli/Dangerous/33.jpg,left,,,,,,,,,,,,0,79,79,79,,,,,,,,,,,,,,,,,,,,,,,,,,,,,,,,,,,,,,,,1,,,,,,,,,,,,,,,,,,,,,,,,,902.6444343002513,None,902.6444343002513,None,left,1,1.1344704004004598,902.6444343002513,None,903.8032400002703,None,,,,,,,,,,,,,,,,,,,,,,,,,,,,,,,,,,41,Male,23,001,2021_Mar_10_1833,cal_abstract,2020.2.4,60.06226066387826,
,,,,Cond,stimuli/Dangerous/6.jpg,right,,,,,,,,,,,,0,80,80,80,,,,,,,,,,,,,,,,,,,,,,,,,,,,,,,,,,,,,,,,1,,,,,,,,,,,,,,,,,,,,,,,,,904.5828642998822,None,904.5828642998822,None,right,1,1.6090516997501254,904.5828642998822,None,906.2182326000184,None,,,,,,,,,,,,,,,,,,,,,,,,,,,,,,,,,,41,Male,23,001,2021_Mar_10_1833,cal_abstract,2020.2.4,60.06226066387826,
,,,,Fix2,stimuli/Wealth/56.jpg,right,,,,,,,,,,,,0,81,81,81,,,,,,,,,,,,,,,,,,,,,,,,,,,,,,,,,,,,,,,,1,,,,,,,,,,,,,,,,,,,,,,,,,907.021122300066,None,907.021122300066,None,right,1,1.711714300327003,907.021122300066,None,908.7483335998841,None,,,,,,,,,,,,,,,,,,,,,,,,,,,,,,,,,,41,Male,23,001,2021_Mar_10_1833,cal_abstract,2020.2.4,60.06226066387826,
,,,,Fix2,stimuli/Wealth/30.jpg,right,,,,,,,,,,,,0,82,82,82,,,,,,,,,,,,,,,,,,,,,,,,,,,,,,,,,,,,,,,,1,,,,,,,,,,,,,,,,,,,,,,,,,909.5235995999537,None,909.5235995999537,None,right,1,0.9140803995542228,909.5235995999537,None,910.4639713000506,None,,,,,,,,,,,,,,,,,,,,,,,,,,,,,,,,,,41,Male,23,001,2021_Mar_10_1833,cal_abstract,2020.2.4,60.06226066387826,
,,,,Fix1,stimuli/Old/49.jpg,left,,,,,,,,,,,,0,83,83,83,,,,,,,,,,,,,,,,,,,,,,,,,,,,,,,,,,,,,,,,0,,,,,,,,,,,,,,,,,,,,,,,,,911.2251293999143,None,911.2251293999143,None,right,0,0.7322922996245325,911.2251293999143,None,911.9822156000882,None,,,,,,,,,,,,,,,,,,,,,,,,,,,,,,,,,,41,Male,23,001,2021_Mar_10_1833,cal_abstract,2020.2.4,60.06226066387826,
,,,,Cond,stimuli/Dangerous/42.jpg,right,,,,,,,,,,,,0,84,84,84,,,,,,,,,,,,,,,,,,,,,,,,,,,,,,,,,,,,,,,,1,,,,,,,,,,,,,,,,,,,,,,,,,912.7777284998447,None,912.7777284998447,None,right,1,0.9494020999409258,912.7777284998447,None,913.7524123000912,None,,,,,,,,,,,,,,,,,,,,,,,,,,,,,,,,,,41,Male,23,001,2021_Mar_10_1833,cal_abstract,2020.2.4,60.06226066387826,
,,,,Cond,stimuli/Dangerous/19.jpg,left,,,,,,,,,,,,0,85,85,85,,,,,,,,,,,,,,,,,,,,,,,,,,,,,,,,,,,,,,,,1,,,,,,,,,,,,,,,,,,,,,,,,,914.5259795002639,None,914.5259795002639,None,left,1,1.625503399875015,914.5259795002639,None,916.1778335999697,None,,,,,,,,,,,,,,,,,,,,,,,,,,,,,,,,,,41,Male,23,001,2021_Mar_10_1833,cal_abstract,2020.2.4,60.06226066387826,
,,,,Fix1,stimuli/Old/30.jpg,left,,,,,,,,,,,,0,86,86,86,,,,,,,,,,,,,,,,,,,,,,,,,,,,,,,,,,,,,,,,1,,,,,,,,,,,,,,,,,,,,,,,,,916.9606281002052,None,916.9606281002052,None,left,1,2.104382500052452,916.9606281002052,None,919.0909935999662,None,,,,,,,,,,,,,,,,,,,,,,,,,,,,,,,,,,41,Male,23,001,2021_Mar_10_1833,cal_abstract,2020.2.4,60.06226066387826,
