Text,Block1Type,Block1Stim,Block1Corr,Block2Type,Block2Stim,Block2Corr,Block3Type,Block3Stim,Block3Corr,Instruction_loop.thisRepN,Instruction_loop.thisTrialN,Instruction_loop.thisN,Instruction_loop.thisIndex,Block1_loop.thisRepN,Block1_loop.thisTrialN,Block1_loop.thisN,Block1_loop.thisIndex,Block2_loop.thisRepN,Block2_loop.thisTrialN,Block2_loop.thisN,Block2_loop.thisIndex,Block3_loop.thisRepN,Block3_loop.thisTrialN,Block3_loop.thisN,Block3_loop.thisIndex,welcome_text1.started,welcome_text1.stopped,welcome_text2.started,welcome_text2.stopped,welcome_text3.started,welcome_text3.stopped,welcome_resp.keys,welcome_resp.rt,welcome_resp.started,welcome_resp.stopped,instruct_text1.started,instruct_text1.stopped,instruct_text2.started,instruct_text2.stopped,instruct_resp1.keys,instruct_resp1.rt,instruct_resp1.started,instruct_resp1.stopped,start_text1.started,start_text1.stopped,start_text2.started,start_text2.stopped,start_resp1.keys,start_resp1.rt,start_resp1.started,start_resp1.stopped,image1.started,image1.stopped,text1.started,text1.stopped,key_resp1.keys,key_resp1.corr,key_resp1.rt,key_resp1.started,key_resp1.stopped,trialCorrect,feedback_text1.started,feedback_text1.stopped,break_text1.started,break_text1.stopped,break_resp1.keys,break_resp1.rt,break_resp1.started,break_resp1.stopped,start_text3.started,start_text3.stopped,start_text4.started,start_text4.stopped,start_resp2.keys,start_resp2.rt,start_resp2.started,start_resp2.stopped,image2.started,image2.stopped,text2.started,text2.stopped,key_resp2.keys,key_resp2.corr,key_resp2.rt,key_resp2.started,key_resp2.stopped,feedback_text2.started,feedback_text2.stopped,break_text2.started,break_text2.stopped,break_resp2.keys,break_resp2.rt,break_resp2.started,break_resp2.stopped,start_text5.started,start_text5.stopped,start_text6.started,start_text6.stopped,start_resp3.keys,start_resp3.rt,start_resp3.started,start_resp3.stopped,image3.started,image3.stopped,text3.started,text3.stopped,key_resp3.keys,key_resp3.corr,key_resp3.rt,key_resp3.started,key_resp3.stopped,feedback_text3.started,feedback_text3.stopped,end_text1.started,end_text1.stopped,end_text2.started,end_text2.stopped,end_resp.keys,end_resp.rt,end_resp.started,end_resp.stopped,participant,session,date,expName,psychopyVersion,frameRate,
,,,,,,,,,,,,,,,,,,,,,,,,,,10.557505553002557,None,10.557505553002557,None,10.557505553002557,None,return,2.5486132619989803,10.557505553002557,None,,,,,,,,,,,,,,,,,,,,,,,,,,,,,,,,,,,,,,,,,,,,,,,,,,,,,,,,,,,,,,,,,,,,,,,,,,,,,,,,,,,,,,,1,001,2021_Feb_23_1602,cal_abstract,2020.2.10,59.93744927699402,
"You will be presented with a series of images. It is your job to learn, through trial and error, whether the “Left” or “Right” arrow key should be pressed for each image.",,,,,,,,,,0,0,0,0,,,,,,,,,,,,,,,,,,,,,,,13.158329007001157,None,13.158329007001157,None,return,10.607937100001436,13.158329007001157,None,,,,,,,,,,,,,,,,,,,,,,,,,,,,,,,,,,,,,,,,,,,,,,,,,,,,,,,,,,,,,,,,,,,,,,,,,,,,,,,1,001,2021_Feb_23_1602,cal_abstract,2020.2.10,59.93744927699402,
"For some images you should always press “Left”, and for others you should always press “Right” arrow key.",,,,,,,,,,0,1,1,1,,,,,,,,,,,,,,,,,,,,,,,23.809194415000093,None,23.809194415000093,None,return,3.2657544949979638,23.809194415000093,None,,,,,,,,,,,,,,,,,,,,,,,,,,,,,,,,,,,,,,,,,,,,,,,,,,,,,,,,,,,,,,,,,,,,,,,,,,,,,,,1,001,2021_Feb_23_1602,cal_abstract,2020.2.10,59.93744927699402,
"Some images are special: the correct response is the opposite of the preceding correct response. That is, if the previous correct answer was “Left” then the correct response would now be “Right”.",,,,,,,,,,0,2,2,2,,,,,,,,,,,,,,,,,,,,,,,27.109548554999492,None,27.109548554999492,None,return,8.750799895002274,27.109548554999492,None,,,,,,,,,,,,,,,,,,,,,,,,,,,,,,,,,,,,,,,,,,,,,,,,,,,,,,,,,,,,,,,,,,,,,,,,,,,,,,,1,001,2021_Feb_23_1602,cal_abstract,2020.2.10,59.93744927699402,
"After each response, you will be told whether you got the item correct or incorrect.",,,,,,,,,,0,3,3,3,,,,,,,,,,,,,,,,,,,,,,,35.9104037649995,None,35.9104037649995,None,return,3.3235235730026034,35.9104037649995,None,,,,,,,,,,,,,,,,,,,,,,,,,,,,,,,,,,,,,,,,,,,,,,,,,,,,,,,,,,,,,,,,,,,,,,,,,,,,,,,1,001,2021_Feb_23_1602,cal_abstract,2020.2.10,59.93744927699402,
"You can take as long as you like on each image, but the task will not continue until you press the “Left” or “Right” arrow key.",,,,,,,,,,0,4,4,4,,,,,,,,,,,,,,,,,,,,,,,39.277049010001065,None,39.277049010001065,None,return,2.843703340000502,39.277049010001065,None,,,,,,,,,,,,,,,,,,,,,,,,,,,,,,,,,,,,,,,,,,,,,,,,,,,,,,,,,,,,,,,,,,,,,,,,,,,,,,,1,001,2021_Feb_23_1602,cal_abstract,2020.2.10,59.93744927699402,
"The experiment will have three blocks, each block will take approximately 10 minutes to complete.",,,,,,,,,,0,5,5,5,,,,,,,,,,,,,,,,,,,,,,,42.16066026500266,None,42.16066026500266,None,return,3.5108729870007664,42.16066026500266,None,,,,,,,,,,,,,,,,,,,,,,,,,,,,,,,,,,,,,,,,,,,,,,,,,,,,,,,,,,,,,,,,,,,,,,,,,,,,,,,1,001,2021_Feb_23_1602,cal_abstract,2020.2.10,59.93744927699402,
,,,,,,,,,,,,,,,,,,,,,,,,,,,,,,,,,,,,,,,,,,,,45.69403822000095,None,45.69403822000095,None,s,3.066335486997559,45.69403822000095,None,,,,,,,,,,,,,,,,,,,,,,,,,,,,,,,,,,,,,,,,,,,,,,,,,,,,,,,,,,,,,,,,,,,,,,,1,001,2021_Feb_23_1602,cal_abstract,2020.2.10,59.93744927699402,
,Fix2,stimuli/Dangerous/15.jpg,right,,,,,,,,,,,0,0,0,0,,,,,,,,,,,,,,,,,,,,,,,,,,,,,,,,,,,49.00997687600102,None,49.00997687600102,None,left,0,3.113639011997293,49.00997687600102,None,0,52.16133867000099,None,,,,,,,,,,,,,,,,,,,,,,,,,,,,,,,,,,,,,,,,,,,,,,,,,,,,,,,,,,,1,001,2021_Feb_23_1602,cal_abstract,2020.2.10,59.93744927699402,
,Fix1,stimuli/School/26.jpg,left,,,,,,,,,,,0,1,1,1,,,,,,,,,,,,,,,,,,,,,,,,,,,,,,,,,,,52.92714582700137,None,52.92714582700137,None,right,0,2.241798884999298,52.92714582700137,None,0,55.19478448500013,None,,,,,,,,,,,,,,,,,,,,,,,,,,,,,,,,,,,,,,,,,,,,,,,,,,,,,,,,,,,1,001,2021_Feb_23_1602,cal_abstract,2020.2.10,59.93744927699402,
,Cond,stimuli/Small/10.jpg,right,,,,,,,,,,,0,2,2,2,,,,,,,,,,,,,,,,,,,,,,,,,,,,,,,,,,,55.961522910001804,None,55.961522910001804,None,right,1,1.8472203199999058,55.961522910001804,None,1,57.82831737000015,None,,,,,,,,,,,,,,,,,,,,,,,,,,,,,,,,,,,,,,,,,,,,,,,,,,,,,,,,,,,1,001,2021_Feb_23_1602,cal_abstract,2020.2.10,59.93744927699402,
,Fix1,stimuli/School/25.jpg,left,,,,,,,,,,,0,3,3,3,,,,,,,,,,,,,,,,,,,,,,,,,,,,,,,,,,,58.59504306999952,None,58.59504306999952,None,right,0,5.093453948000388,58.59504306999952,None,0,63.712158130001626,None,,,,,,,,,,,,,,,,,,,,,,,,,,,,,,,,,,,,,,,,,,,,,,,,,,,,,,,,,,,1,001,2021_Feb_23_1602,cal_abstract,2020.2.10,59.93744927699402,
,Fix2,stimuli/Dangerous/30.jpg,right,,,,,,,,,,,0,4,4,4,,,,,,,,,,,,,,,,,,,,,,,,,,,,,,,,,,,64.47888247000083,None,64.47888247000083,None,right,1,2.8113290750006854,64.47888247000083,None,1,67.31228835000002,None,,,,,,,,,,,,,,,,,,,,,,,,,,,,,,,,,,,,,,,,,,,,,,,,,,,,,,,,,,,1,001,2021_Feb_23_1602,cal_abstract,2020.2.10,59.93744927699402,
,Fix2,stimuli/Dangerous/42.jpg,right,,,,,,,,,,,0,5,5,5,,,,,,,,,,,,,,,,,,,,,,,,,,,,,,,,,,,68.07852937700227,None,68.07852937700227,None,right,1,1.1402617729982012,68.07852937700227,None,1,69.24529994499972,None,,,,,,,,,,,,,,,,,,,,,,,,,,,,,,,,,,,,,,,,,,,,,,,,,,,,,,,,,,,1,001,2021_Feb_23_1602,cal_abstract,2020.2.10,59.93744927699402,
,Cond,stimuli/Small/4.jpg,left,,,,,,,,,,,0,6,6,6,,,,,,,,,,,,,,,,,,,,,,,,,,,,,,,,,,,70.01251094500185,None,70.01251094500185,None,left,1,2.3370961849977903,70.01251094500185,None,1,72.37930618500104,None,,,,,,,,,,,,,,,,,,,,,,,,,,,,,,,,,,,,,,,,,,,,,,,,,,,,,,,,,,,1,001,2021_Feb_23_1602,cal_abstract,2020.2.10,59.93744927699402,
,Fix2,stimuli/Dangerous/44.jpg,right,,,,,,,,,,,0,7,7,7,,,,,,,,,,,,,,,,,,,,,,,,,,,,,,,,,,,73.14626761700129,None,73.14626761700129,None,right,1,1.5010303000017302,73.14626761700129,None,1,74.67941529200107,None,,,,,,,,,,,,,,,,,,,,,,,,,,,,,,,,,,,,,,,,,,,,,,,,,,,,,,,,,,,1,001,2021_Feb_23_1602,cal_abstract,2020.2.10,59.93744927699402,
,Cond,stimuli/Small/39.jpg,left,,,,,,,,,,,0,8,8,8,,,,,,,,,,,,,,,,,,,,,,,,,,,,,,,,,,,75.44621259999985,None,75.44621259999985,None,left,1,1.149143329999788,75.44621259999985,None,1,76.61316638700009,None,,,,,,,,,,,,,,,,,,,,,,,,,,,,,,,,,,,,,,,,,,,,,,,,,,,,,,,,,,,1,001,2021_Feb_23_1602,cal_abstract,2020.2.10,59.93744927699402,
,Fix2,stimuli/Dangerous/34.jpg,right,,,,,,,,,,,0,9,9,9,,,,,,,,,,,,,,,,,,,,,,,,,,,,,,,,,,,77.37992100500196,None,77.37992100500196,None,right,1,1.355197644999862,77.37992100500196,None,1,78.76311280700247,None,,,,,,,,,,,,,,,,,,,,,,,,,,,,,,,,,,,,,,,,,,,,,,,,,,,,,,,,,,,1,001,2021_Feb_23_1602,cal_abstract,2020.2.10,59.93744927699402,
,Cond,stimuli/Small/13.jpg,left,,,,,,,,,,,0,10,10,10,,,,,,,,,,,,,,,,,,,,,,,,,,,,,,,,,,,79.52989272700142,None,79.52989272700142,None,left,1,1.6992113619999145,79.52989272700142,None,1,81.24609898500057,None,,,,,,,,,,,,,,,,,,,,,,,,,,,,,,,,,,,,,,,,,,,,,,,,,,,,,,,,,,,1,001,2021_Feb_23_1602,cal_abstract,2020.2.10,59.93744927699402,
,Fix2,stimuli/Dangerous/6.jpg,right,,,,,,,,,,,0,11,11,11,,,,,,,,,,,,,,,,,,,,,,,,,,,,,,,,,,,82.01333120700292,None,82.01333120700292,None,right,1,2.5495455029995355,82.01333120700292,None,1,84.57965852599955,None,,,,,,,,,,,,,,,,,,,,,,,,,,,,,,,,,,,,,,,,,,,,,,,,,,,,,,,,,,,1,001,2021_Feb_23_1602,cal_abstract,2020.2.10,59.93744927699402,
,Fix2,stimuli/Dangerous/24.jpg,right,,,,,,,,,,,0,12,12,12,,,,,,,,,,,,,,,,,,,,,,,,,,,,,,,,,,,85.34687778500302,None,85.34687778500302,None,right,1,1.2717953350002063,85.34687778500302,None,1,86.64684975199998,None,,,,,,,,,,,,,,,,,,,,,,,,,,,,,,,,,,,,,,,,,,,,,,,,,,,,,,,,,,,1,001,2021_Feb_23_1602,cal_abstract,2020.2.10,59.93744927699402,
,Cond,stimuli/Small/20.jpg,left,,,,,,,,,,,0,13,13,13,,,,,,,,,,,,,,,,,,,,,,,,,,,,,,,,,,,87.41316992000066,None,87.41316992000066,None,left,1,0.8814410949999001,87.41316992000066,None,1,88.31383032200029,None,,,,,,,,,,,,,,,,,,,,,,,,,,,,,,,,,,,,,,,,,,,,,,,,,,,,,,,,,,,1,001,2021_Feb_23_1602,cal_abstract,2020.2.10,59.93744927699402,
,Fix2,stimuli/Dangerous/33.jpg,right,,,,,,,,,,,0,14,14,14,,,,,,,,,,,,,,,,,,,,,,,,,,,,,,,,,,,89.08051313200122,None,89.08051313200122,None,right,1,0.7388639370001329,89.08051313200122,None,1,89.84713411700068,None,,,,,,,,,,,,,,,,,,,,,,,,,,,,,,,,,,,,,,,,,,,,,,,,,,,,,,,,,,,1,001,2021_Feb_23_1602,cal_abstract,2020.2.10,59.93744927699402,
,Cond,stimuli/Small/2.jpg,left,,,,,,,,,,,0,15,15,15,,,,,,,,,,,,,,,,,,,,,,,,,,,,,,,,,,,90.61403129700193,None,90.61403129700193,None,left,1,1.3593483149998065,90.61403129700193,None,1,91.99742064500242,None,,,,,,,,,,,,,,,,,,,,,,,,,,,,,,,,,,,,,,,,,,,,,,,,,,,,,,,,,,,1,001,2021_Feb_23_1602,cal_abstract,2020.2.10,59.93744927699402,
,Fix2,stimuli/Dangerous/41.jpg,right,,,,,,,,,,,0,16,16,16,,,,,,,,,,,,,,,,,,,,,,,,,,,,,,,,,,,92.76412252999944,None,92.76412252999944,None,right,1,0.8661842600013188,92.76412252999944,None,1,93.64615463800146,None,,,,,,,,,,,,,,,,,,,,,,,,,,,,,,,,,,,,,,,,,,,,,,,,,,,,,,,,,,,1,001,2021_Feb_23_1602,cal_abstract,2020.2.10,59.93744927699402,
,Fix1,stimuli/School/56.jpg,left,,,,,,,,,,,0,17,17,17,,,,,,,,,,,,,,,,,,,,,,,,,,,,,,,,,,,94.41420403200027,None,94.41420403200027,None,right,0,3.775893054997141,94.41420403200027,None,0,98.2142768900012,None,,,,,,,,,,,,,,,,,,,,,,,,,,,,,,,,,,,,,,,,,,,,,,,,,,,,,,,,,,,1,001,2021_Feb_23_1602,cal_abstract,2020.2.10,59.93744927699402,
,Cond,stimuli/Small/57.jpg,right,,,,,,,,,,,0,18,18,18,,,,,,,,,,,,,,,,,,,,,,,,,,,,,,,,,,,98.98118794699985,None,98.98118794699985,None,left,0,1.9028051929999492,98.98118794699985,None,0,100.91456496700266,None,,,,,,,,,,,,,,,,,,,,,,,,,,,,,,,,,,,,,,,,,,,,,,,,,,,,,,,,,,,1,001,2021_Feb_23_1602,cal_abstract,2020.2.10,59.93744927699402,
,Fix2,stimuli/Dangerous/58.jpg,right,,,,,,,,,,,0,19,19,19,,,,,,,,,,,,,,,,,,,,,,,,,,,,,,,,,,,101.68149204200017,None,101.68149204200017,None,right,1,3.13213456000085,101.68149204200017,None,1,104.83128453999961,None,,,,,,,,,,,,,,,,,,,,,,,,,,,,,,,,,,,,,,,,,,,,,,,,,,,,,,,,,,,1,001,2021_Feb_23_1602,cal_abstract,2020.2.10,59.93744927699402,
,Cond,stimuli/Small/58.jpg,left,,,,,,,,,,,0,20,20,20,,,,,,,,,,,,,,,,,,,,,,,,,,,,,,,,,,,105.59963019000133,None,105.59963019000133,None,left,1,4.191098805000365,105.59963019000133,None,1,109.81507508700088,None,,,,,,,,,,,,,,,,,,,,,,,,,,,,,,,,,,,,,,,,,,,,,,,,,,,,,,,,,,,1,001,2021_Feb_23_1602,cal_abstract,2020.2.10,59.93744927699402,
,Fix2,stimuli/Dangerous/20.jpg,right,,,,,,,,,,,0,21,21,21,,,,,,,,,,,,,,,,,,,,,,,,,,,,,,,,,,,110.58201415700023,None,110.58201415700023,None,right,1,1.1605652649996046,110.58201415700023,None,1,111.76536878700063,None,,,,,,,,,,,,,,,,,,,,,,,,,,,,,,,,,,,,,,,,,,,,,,,,,,,,,,,,,,,1,001,2021_Feb_23_1602,cal_abstract,2020.2.10,59.93744927699402,
,Cond,stimuli/Small/29.jpg,left,,,,,,,,,,,0,22,22,22,,,,,,,,,,,,,,,,,,,,,,,,,,,,,,,,,,,112.53219922700009,None,112.53219922700009,None,left,1,1.10217481500149,112.53219922700009,None,1,113.66553010999996,None,,,,,,,,,,,,,,,,,,,,,,,,,,,,,,,,,,,,,,,,,,,,,,,,,,,,,,,,,,,1,001,2021_Feb_23_1602,cal_abstract,2020.2.10,59.93744927699402,
,Fix2,stimuli/Dangerous/46.jpg,right,,,,,,,,,,,0,23,23,23,,,,,,,,,,,,,,,,,,,,,,,,,,,,,,,,,,,114.43233323000095,None,114.43233323000095,None,right,1,1.0060032549990865,114.43233323000095,None,1,115.4655977270013,None,,,,,,,,,,,,,,,,,,,,,,,,,,,,,,,,,,,,,,,,,,,,,,,,,,,,,,,,,,,1,001,2021_Feb_23_1602,cal_abstract,2020.2.10,59.93744927699402,
,Fix1,stimuli/School/10.jpg,left,,,,,,,,,,,0,24,24,24,,,,,,,,,,,,,,,,,,,,,,,,,,,,,,,,,,,116.23259338700154,None,116.23259338700154,None,left,1,1.8064546899986453,116.23259338700154,None,1,118.06592761499996,None,,,,,,,,,,,,,,,,,,,,,,,,,,,,,,,,,,,,,,,,,,,,,,,,,,,,,,,,,,,1,001,2021_Feb_23_1602,cal_abstract,2020.2.10,59.93744927699402,
,Fix1,stimuli/School/50.jpg,left,,,,,,,,,,,0,25,25,25,,,,,,,,,,,,,,,,,,,,,,,,,,,,,,,,,,,118.83269208000274,None,118.83269208000274,None,right,0,8.698109293000016,118.83269208000274,None,0,127.54945864500041,None,,,,,,,,,,,,,,,,,,,,,,,,,,,,,,,,,,,,,,,,,,,,,,,,,,,,,,,,,,,1,001,2021_Feb_23_1602,cal_abstract,2020.2.10,59.93744927699402,
,Cond,stimuli/Small/19.jpg,right,,,,,,,,,,,0,26,26,26,,,,,,,,,,,,,,,,,,,,,,,,,,,,,,,,,,,128.31655364499966,None,128.31655364499966,None,left,0,4.843509635000373,128.31655364499966,None,0,133.18352083700302,None,,,,,,,,,,,,,,,,,,,,,,,,,,,,,,,,,,,,,,,,,,,,,,,,,,,,,,,,,,,1,001,2021_Feb_23_1602,cal_abstract,2020.2.10,59.93744927699402,
,Fix1,stimuli/School/28.jpg,left,,,,,,,,,,,0,27,27,27,,,,,,,,,,,,,,,,,,,,,,,,,,,,,,,,,,,133.93345796700305,None,133.93345796700305,None,left,1,6.606353905001015,133.93345796700305,None,1,140.56685359699986,None,,,,,,,,,,,,,,,,,,,,,,,,,,,,,,,,,,,,,,,,,,,,,,,,,,,,,,,,,,,1,001,2021_Feb_23_1602,cal_abstract,2020.2.10,59.93744927699402,
,Fix1,stimuli/School/35.jpg,left,,,,,,,,,,,0,28,28,28,,,,,,,,,,,,,,,,,,,,,,,,,,,,,,,,,,,141.33407373500086,None,141.33407373500086,None,left,1,1.3485280350032554,141.33407373500086,None,1,142.70072882000022,None,,,,,,,,,,,,,,,,,,,,,,,,,,,,,,,,,,,,,,,,,,,,,,,,,,,,,,,,,,,1,001,2021_Feb_23_1602,cal_abstract,2020.2.10,59.93744927699402,
,Fix1,stimuli/School/39.jpg,left,,,,,,,,,,,0,29,29,29,,,,,,,,,,,,,,,,,,,,,,,,,,,,,,,,,,,143.46750109700224,None,143.46750109700224,None,left,1,0.628853269998217,143.46750109700224,None,1,144.11770009500106,None,,,,,,,,,,,,,,,,,,,,,,,,,,,,,,,,,,,,,,,,,,,,,,,,,,,,,,,,,,,1,001,2021_Feb_23_1602,cal_abstract,2020.2.10,59.93744927699402,
,Cond,stimuli/Small/42.jpg,right,,,,,,,,,,,0,30,30,30,,,,,,,,,,,,,,,,,,,,,,,,,,,,,,,,,,,144.88443755200205,None,144.88443755200205,None,left,0,1.8858566200033238,144.88443755200205,None,0,146.8007690350023,None,,,,,,,,,,,,,,,,,,,,,,,,,,,,,,,,,,,,,,,,,,,,,,,,,,,,,,,,,,,1,001,2021_Feb_23_1602,cal_abstract,2020.2.10,59.93744927699402,
,Fix2,stimuli/Dangerous/31.jpg,right,,,,,,,,,,,0,31,31,31,,,,,,,,,,,,,,,,,,,,,,,,,,,,,,,,,,,147.56737482000244,None,147.56737482000244,None,right,1,6.185052389999328,147.56737482000244,None,1,153.78468253000028,None,,,,,,,,,,,,,,,,,,,,,,,,,,,,,,,,,,,,,,,,,,,,,,,,,,,,,,,,,,,1,001,2021_Feb_23_1602,cal_abstract,2020.2.10,59.93744927699402,
,Cond,stimuli/Small/25.jpg,left,,,,,,,,,,,0,32,32,32,,,,,,,,,,,,,,,,,,,,,,,,,,,,,,,,,,,154.55174888700276,None,154.55174888700276,None,left,1,1.3881067929978599,154.55174888700276,None,1,155.96816189200035,None,,,,,,,,,,,,,,,,,,,,,,,,,,,,,,,,,,,,,,,,,,,,,,,,,,,,,,,,,,,1,001,2021_Feb_23_1602,cal_abstract,2020.2.10,59.93744927699402,
,Cond,stimuli/Small/9.jpg,right,,,,,,,,,,,0,33,33,33,,,,,,,,,,,,,,,,,,,,,,,,,,,,,,,,,,,156.73516418700092,None,156.73516418700092,None,right,1,2.1315047799980675,156.73516418700092,None,1,158.88532422000208,None,,,,,,,,,,,,,,,,,,,,,,,,,,,,,,,,,,,,,,,,,,,,,,,,,,,,,,,,,,,1,001,2021_Feb_23_1602,cal_abstract,2020.2.10,59.93744927699402,
,Fix1,stimuli/School/9.jpg,left,,,,,,,,,,,0,34,34,34,,,,,,,,,,,,,,,,,,,,,,,,,,,,,,,,,,,159.65192545200262,None,159.65192545200262,None,left,1,1.823577095001383,159.65192545200262,None,1,161.50189193700135,None,,,,,,,,,,,,,,,,,,,,,,,,,,,,,,,,,,,,,,,,,,,,,,,,,,,,,,,,,,,1,001,2021_Feb_23_1602,cal_abstract,2020.2.10,59.93744927699402,
,Fix1,stimuli/School/23.jpg,left,,,,,,,,,,,0,35,35,35,,,,,,,,,,,,,,,,,,,,,,,,,,,,,,,,,,,162.26887638700282,None,162.26887638700282,None,left,1,59.85320015999969,162.26887638700282,None,1,222.15473254000244,None,,,,,,,,,,,,,,,,,,,,,,,,,,,,,,,,,,,,,,,,,,,,,,,,,,,,,,,,,,,1,001,2021_Feb_23_1602,cal_abstract,2020.2.10,59.93744927699402,
,Fix1,stimuli/School/54.jpg,left,,,,,,,,,,,0,36,36,36,,,,,,,,,,,,,,,,,,,,,,,,,,,,,,,,,,,222.92327640000076,None,222.92327640000076,None,left,1,1.0541623460012488,222.92327640000076,None,1,224.0059863960014,None,,,,,,,,,,,,,,,,,,,,,,,,,,,,,,,,,,,,,,,,,,,,,,,,,,,,,,,,,,,1,001,2021_Feb_23_1602,cal_abstract,2020.2.10,59.93744927699402,
,Cond,stimuli/Small/43.jpg,right,,,,,,,,,,,0,37,37,37,,,,,,,,,,,,,,,,,,,,,,,,,,,,,,,,,,,224.77355839000302,None,224.77355839000302,None,right,1,1.7698776379984338,224.77355839000302,None,1,226.57171304500298,None,,,,,,,,,,,,,,,,,,,,,,,,,,,,,,,,,,,,,,,,,,,,,,,,,,,,,,,,,,,1,001,2021_Feb_23_1602,cal_abstract,2020.2.10,59.93744927699402,
,Fix2,stimuli/Dangerous/22.jpg,right,,,,,,,,,,,0,38,38,38,,,,,,,,,,,,,,,,,,,,,,,,,,,,,,,,,,,227.3403276570025,None,227.3403276570025,None,right,1,2.210797932002606,227.3403276570025,None,1,229.57371391200286,None,,,,,,,,,,,,,,,,,,,,,,,,,,,,,,,,,,,,,,,,,,,,,,,,,,,,,,,,,,,1,001,2021_Feb_23_1602,cal_abstract,2020.2.10,59.93744927699402,
,Fix2,stimuli/Dangerous/43.jpg,right,,,,,,,,,,,0,39,39,39,,,,,,,,,,,,,,,,,,,,,,,,,,,,,,,,,,,230.34020624500045,None,230.34020624500045,None,right,1,0.7748277819991927,230.34020624500045,None,1,231.14033012500295,None,,,,,,,,,,,,,,,,,,,,,,,,,,,,,,,,,,,,,,,,,,,,,,,,,,,,,,,,,,,1,001,2021_Feb_23_1602,cal_abstract,2020.2.10,59.93744927699402,
,Cond,stimuli/Small/36.jpg,left,,,,,,,,,,,0,40,40,40,,,,,,,,,,,,,,,,,,,,,,,,,,,,,,,,,,,231.9094445970004,None,231.9094445970004,None,left,1,1.5533758650017262,231.9094445970004,None,1,233.49057579500004,None,,,,,,,,,,,,,,,,,,,,,,,,,,,,,,,,,,,,,,,,,,,,,,,,,,,,,,,,,,,1,001,2021_Feb_23_1602,cal_abstract,2020.2.10,59.93744927699402,
,Fix2,stimuli/Dangerous/38.jpg,right,,,,,,,,,,,0,41,41,41,,,,,,,,,,,,,,,,,,,,,,,,,,,,,,,,,,,234.25688998700207,None,234.25688998700207,None,right,1,1.116869030000089,234.25688998700207,None,1,235.39060602500103,None,,,,,,,,,,,,,,,,,,,,,,,,,,,,,,,,,,,,,,,,,,,,,,,,,,,,,,,,,,,1,001,2021_Feb_23_1602,cal_abstract,2020.2.10,59.93744927699402,
,Fix1,stimuli/School/18.jpg,left,,,,,,,,,,,0,42,42,42,,,,,,,,,,,,,,,,,,,,,,,,,,,,,,,,,,,236.1574024750007,None,236.1574024750007,None,left,1,0.9212646229971142,236.1574024750007,None,1,237.10744811500263,None,,,,,,,,,,,,,,,,,,,,,,,,,,,,,,,,,,,,,,,,,,,,,,,,,,,,,,,,,,,1,001,2021_Feb_23_1602,cal_abstract,2020.2.10,59.93744927699402,
,Fix1,stimuli/School/36.jpg,left,,,,,,,,,,,0,43,43,43,,,,,,,,,,,,,,,,,,,,,,,,,,,,,,,,,,,237.8741881349997,None,237.8741881349997,None,left,1,0.7295491699987906,237.8741881349997,None,1,238.6239555300017,None,,,,,,,,,,,,,,,,,,,,,,,,,,,,,,,,,,,,,,,,,,,,,,,,,,,,,,,,,,,1,001,2021_Feb_23_1602,cal_abstract,2020.2.10,59.93744927699402,
,Fix1,stimuli/School/48.jpg,left,,,,,,,,,,,0,44,44,44,,,,,,,,,,,,,,,,,,,,,,,,,,,,,,,,,,,239.3909623899999,None,239.3909623899999,None,left,1,1.5995159480007715,239.3909623899999,None,1,241.00716079999984,None,,,,,,,,,,,,,,,,,,,,,,,,,,,,,,,,,,,,,,,,,,,,,,,,,,,,,,,,,,,1,001,2021_Feb_23_1602,cal_abstract,2020.2.10,59.93744927699402,
,Fix1,stimuli/School/42.jpg,left,,,,,,,,,,,0,45,45,45,,,,,,,,,,,,,,,,,,,,,,,,,,,,,,,,,,,241.77453679700193,None,241.77453679700193,None,left,1,1.927703448000102,241.77453679700193,None,1,243.72449342700202,None,,,,,,,,,,,,,,,,,,,,,,,,,,,,,,,,,,,,,,,,,,,,,,,,,,,,,,,,,,,1,001,2021_Feb_23_1602,cal_abstract,2020.2.10,59.93744927699402,
,Cond,stimuli/Small/23.jpg,right,,,,,,,,,,,0,46,46,46,,,,,,,,,,,,,,,,,,,,,,,,,,,,,,,,,,,244.49132779700085,None,244.49132779700085,None,right,1,1.293784425000922,244.49132779700085,None,1,245.80790845199954,None,,,,,,,,,,,,,,,,,,,,,,,,,,,,,,,,,,,,,,,,,,,,,,,,,,,,,,,,,,,1,001,2021_Feb_23_1602,cal_abstract,2020.2.10,59.93744927699402,
,Cond,stimuli/Small/38.jpg,left,,,,,,,,,,,0,47,47,47,,,,,,,,,,,,,,,,,,,,,,,,,,,,,,,,,,,246.57452221700078,None,246.57452221700078,None,left,1,0.9064808600014658,246.57452221700078,None,1,247.50819816000148,None,,,,,,,,,,,,,,,,,,,,,,,,,,,,,,,,,,,,,,,,,,,,,,,,,,,,,,,,,,,1,001,2021_Feb_23_1602,cal_abstract,2020.2.10,59.93744927699402,
,Cond,stimuli/Small/55.jpg,right,,,,,,,,,,,0,48,48,48,,,,,,,,,,,,,,,,,,,,,,,,,,,,,,,,,,,248.2749176819998,None,248.2749176819998,None,right,1,1.3798878070010687,248.2749176819998,None,1,249.6747324320022,None,,,,,,,,,,,,,,,,,,,,,,,,,,,,,,,,,,,,,,,,,,,,,,,,,,,,,,,,,,,1,001,2021_Feb_23_1602,cal_abstract,2020.2.10,59.93744927699402,
,Cond,stimuli/Small/1.jpg,left,,,,,,,,,,,0,49,49,49,,,,,,,,,,,,,,,,,,,,,,,,,,,,,,,,,,,250.44155201499962,None,250.44155201499962,None,left,1,1.1510376529986388,250.44155201499962,None,1,251.62526824499946,None,,,,,,,,,,,,,,,,,,,,,,,,,,,,,,,,,,,,,,,,,,,,,,,,,,,,,,,,,,,1,001,2021_Feb_23_1602,cal_abstract,2020.2.10,59.93744927699402,
,Fix1,stimuli/School/6.jpg,left,,,,,,,,,,,0,50,50,50,,,,,,,,,,,,,,,,,,,,,,,,,,,,,,,,,,,252.39182313000128,None,252.39182313000128,None,left,1,2.768817100000888,252.39182313000128,None,1,255.19169556700217,None,,,,,,,,,,,,,,,,,,,,,,,,,,,,,,,,,,,,,,,,,,,,,,,,,,,,,,,,,,,1,001,2021_Feb_23_1602,cal_abstract,2020.2.10,59.93744927699402,
,Fix2,stimuli/Dangerous/18.jpg,right,,,,,,,,,,,0,51,51,51,,,,,,,,,,,,,,,,,,,,,,,,,,,,,,,,,,,255.95884677499998,None,255.95884677499998,None,right,1,0.7638138680013071,255.95884677499998,None,1,256.74187348000123,None,,,,,,,,,,,,,,,,,,,,,,,,,,,,,,,,,,,,,,,,,,,,,,,,,,,,,,,,,,,1,001,2021_Feb_23_1602,cal_abstract,2020.2.10,59.93744927699402,
,Fix1,stimuli/School/1.jpg,left,,,,,,,,,,,0,52,52,52,,,,,,,,,,,,,,,,,,,,,,,,,,,,,,,,,,,257.5088037650021,None,257.5088037650021,None,left,1,1.397750778000045,257.5088037650021,None,1,258.92553643500287,None,,,,,,,,,,,,,,,,,,,,,,,,,,,,,,,,,,,,,,,,,,,,,,,,,,,,,,,,,,,1,001,2021_Feb_23_1602,cal_abstract,2020.2.10,59.93744927699402,
,Cond,stimuli/Small/33.jpg,right,,,,,,,,,,,0,53,53,53,,,,,,,,,,,,,,,,,,,,,,,,,,,,,,,,,,,259.69230694,None,259.69230694,None,right,1,0.936209384999529,259.69230694,None,1,260.65899945000274,None,,,,,,,,,,,,,,,,,,,,,,,,,,,,,,,,,,,,,,,,,,,,,,,,,,,,,,,,,,,1,001,2021_Feb_23_1602,cal_abstract,2020.2.10,59.93744927699402,
,Cond,stimuli/Small/12.jpg,left,,,,,,,,,,,0,54,54,54,,,,,,,,,,,,,,,,,,,,,,,,,,,,,,,,,,,261.40898474500136,None,261.40898474500136,None,left,1,1.1773296680003114,261.40898474500136,None,1,262.60858172699955,None,,,,,,,,,,,,,,,,,,,,,,,,,,,,,,,,,,,,,,,,,,,,,,,,,,,,,,,,,,,1,001,2021_Feb_23_1602,cal_abstract,2020.2.10,59.93744927699402,
,Cond,stimuli/Small/17.jpg,right,,,,,,,,,,,0,55,55,55,,,,,,,,,,,,,,,,,,,,,,,,,,,,,,,,,,,263.37589085199943,None,263.37589085199943,None,right,1,0.677323593001347,263.37589085199943,None,1,264.0759839750026,None,,,,,,,,,,,,,,,,,,,,,,,,,,,,,,,,,,,,,,,,,,,,,,,,,,,,,,,,,,,1,001,2021_Feb_23_1602,cal_abstract,2020.2.10,59.93744927699402,
,Fix1,stimuli/School/17.jpg,left,,,,,,,,,,,0,56,56,56,,,,,,,,,,,,,,,,,,,,,,,,,,,,,,,,,,,264.84260016700136,None,264.84260016700136,None,left,1,1.2293883000020287,264.84260016700136,None,1,266.09268208700087,None,,,,,,,,,,,,,,,,,,,,,,,,,,,,,,,,,,,,,,,,,,,,,,,,,,,,,,,,,,,1,001,2021_Feb_23_1602,cal_abstract,2020.2.10,59.93744927699402,
,Cond,stimuli/Small/11.jpg,right,,,,,,,,,,,0,57,57,57,,,,,,,,,,,,,,,,,,,,,,,,,,,,,,,,,,,266.8591554369996,None,266.8591554369996,None,right,1,0.8268334500025958,266.8591554369996,None,1,267.7095537000023,None,,,,,,,,,,,,,,,,,,,,,,,,,,,,,,,,,,,,,,,,,,,,,,,,,,,,,,,,,,,1,001,2021_Feb_23_1602,cal_abstract,2020.2.10,59.93744927699402,
,Fix1,stimuli/School/33.jpg,left,,,,,,,,,,,0,58,58,58,,,,,,,,,,,,,,,,,,,,,,,,,,,,,,,,,,,268.47633447000044,None,268.47633447000044,None,left,1,1.023498219998146,268.47633447000044,None,1,269.5260867020006,None,,,,,,,,,,,,,,,,,,,,,,,,,,,,,,,,,,,,,,,,,,,,,,,,,,,,,,,,,,,1,001,2021_Feb_23_1602,cal_abstract,2020.2.10,59.93744927699402,
,Cond,stimuli/Small/18.jpg,right,,,,,,,,,,,0,59,59,59,,,,,,,,,,,,,,,,,,,,,,,,,,,,,,,,,,,270.29289980500107,None,270.29289980500107,None,right,1,1.223831754999992,270.29289980500107,None,1,271.5430485200013,None,,,,,,,,,,,,,,,,,,,,,,,,,,,,,,,,,,,,,,,,,,,,,,,,,,,,,,,,,,,1,001,2021_Feb_23_1602,cal_abstract,2020.2.10,59.93744927699402,
,Fix2,stimuli/Dangerous/61.jpg,right,,,,,,,,,,,0,60,60,60,,,,,,,,,,,,,,,,,,,,,,,,,,,,,,,,,,,272.30959318700116,None,272.30959318700116,None,right,1,0.9161796770022193,272.30959318700116,None,1,273.2431546100015,None,,,,,,,,,,,,,,,,,,,,,,,,,,,,,,,,,,,,,,,,,,,,,,,,,,,,,,,,,,,1,001,2021_Feb_23_1602,cal_abstract,2020.2.10,59.93744927699402,
,Fix2,stimuli/Dangerous/32.jpg,right,,,,,,,,,,,0,61,61,61,,,,,,,,,,,,,,,,,,,,,,,,,,,,,,,,,,,274.0099905370007,None,274.0099905370007,None,right,1,0.6964806750002026,274.0099905370007,None,1,274.72531057000015,None,,,,,,,,,,,,,,,,,,,,,,,,,,,,,,,,,,,,,,,,,,,,,,,,,,,,,,,,,,,1,001,2021_Feb_23_1602,cal_abstract,2020.2.10,59.93744927699402,
,Fix2,stimuli/Dangerous/28.jpg,right,,,,,,,,,,,0,62,62,62,,,,,,,,,,,,,,,,,,,,,,,,,,,,,,,,,,,275.49341319000087,None,275.49341319000087,None,right,1,0.684877162999328,275.49341319000087,None,1,276.20942916700005,None,,,,,,,,,,,,,,,,,,,,,,,,,,,,,,,,,,,,,,,,,,,,,,,,,,,,,,,,,,,1,001,2021_Feb_23_1602,cal_abstract,2020.2.10,59.93744927699402,
,Cond,stimuli/Small/16.jpg,left,,,,,,,,,,,0,63,63,63,,,,,,,,,,,,,,,,,,,,,,,,,,,,,,,,,,,276.9768519120007,None,276.9768519120007,None,left,1,0.8683352269981697,276.9768519120007,None,1,277.876846500003,None,,,,,,,,,,,,,,,,,,,,,,,,,,,,,,,,,,,,,,,,,,,,,,,,,,,,,,,,,,,1,001,2021_Feb_23_1602,cal_abstract,2020.2.10,59.93744927699402,
,Cond,stimuli/Small/14.jpg,right,,,,,,,,,,,0,64,64,64,,,,,,,,,,,,,,,,,,,,,,,,,,,,,,,,,,,278.643602387001,None,278.643602387001,None,left,0,1.645474799999647,278.643602387001,None,0,280.3103335800006,None,,,,,,,,,,,,,,,,,,,,,,,,,,,,,,,,,,,,,,,,,,,,,,,,,,,,,,,,,,,1,001,2021_Feb_23_1602,cal_abstract,2020.2.10,59.93744927699402,
,Fix2,stimuli/Dangerous/35.jpg,right,,,,,,,,,,,0,65,65,65,,,,,,,,,,,,,,,,,,,,,,,,,,,,,,,,,,,281.0766703900008,None,281.0766703900008,None,right,1,1.3924133319997054,281.0766703900008,None,1,282.4937714450025,None,,,,,,,,,,,,,,,,,,,,,,,,,,,,,,,,,,,,,,,,,,,,,,,,,,,,,,,,,,,1,001,2021_Feb_23_1602,cal_abstract,2020.2.10,59.93744927699402,
,Fix2,stimuli/Dangerous/3.jpg,right,,,,,,,,,,,0,66,66,66,,,,,,,,,,,,,,,,,,,,,,,,,,,,,,,,,,,283.2604299750019,None,283.2604299750019,None,right,1,0.9734994650025328,283.2604299750019,None,1,284.26034524200077,None,,,,,,,,,,,,,,,,,,,,,,,,,,,,,,,,,,,,,,,,,,,,,,,,,,,,,,,,,,,1,001,2021_Feb_23_1602,cal_abstract,2020.2.10,59.93744927699402,
,Cond,stimuli/Small/45.jpg,left,,,,,,,,,,,0,67,67,67,,,,,,,,,,,,,,,,,,,,,,,,,,,,,,,,,,,285.02732084500167,None,285.02732084500167,None,left,1,0.9754975349969754,285.02732084500167,None,1,286.02741344199967,None,,,,,,,,,,,,,,,,,,,,,,,,,,,,,,,,,,,,,,,,,,,,,,,,,,,,,,,,,,,1,001,2021_Feb_23_1602,cal_abstract,2020.2.10,59.93744927699402,
,Fix2,stimuli/Dangerous/10.jpg,right,,,,,,,,,,,0,68,68,68,,,,,,,,,,,,,,,,,,,,,,,,,,,,,,,,,,,286.7944117520019,None,286.7944117520019,None,right,1,1.6062528600014048,286.7944117520019,None,1,288.42755471000055,None,,,,,,,,,,,,,,,,,,,,,,,,,,,,,,,,,,,,,,,,,,,,,,,,,,,,,,,,,,,1,001,2021_Feb_23_1602,cal_abstract,2020.2.10,59.93744927699402,
,Fix2,stimuli/Dangerous/9.jpg,right,,,,,,,,,,,0,69,69,69,,,,,,,,,,,,,,,,,,,,,,,,,,,,,,,,,,,289.19383858700166,None,289.19383858700166,None,right,1,1.5367564799998945,289.19383858700166,None,1,290.7610416999996,None,,,,,,,,,,,,,,,,,,,,,,,,,,,,,,,,,,,,,,,,,,,,,,,,,,,,,,,,,,,1,001,2021_Feb_23_1602,cal_abstract,2020.2.10,59.93744927699402,
,Cond,stimuli/Small/31.jpg,left,,,,,,,,,,,0,70,70,70,,,,,,,,,,,,,,,,,,,,,,,,,,,,,,,,,,,291.5276806900001,None,291.5276806900001,None,left,1,1.4355891499981226,291.5276806900001,None,1,292.9945486100005,None,,,,,,,,,,,,,,,,,,,,,,,,,,,,,,,,,,,,,,,,,,,,,,,,,,,,,,,,,,,1,001,2021_Feb_23_1602,cal_abstract,2020.2.10,59.93744927699402,
,Fix1,stimuli/School/19.jpg,left,,,,,,,,,,,0,71,71,71,,,,,,,,,,,,,,,,,,,,,,,,,,,,,,,,,,,293.761169100002,None,293.761169100002,None,left,1,1.029993211999681,293.761169100002,None,1,294.811434225001,None,,,,,,,,,,,,,,,,,,,,,,,,,,,,,,,,,,,,,,,,,,,,,,,,,,,,,,,,,,,1,001,2021_Feb_23_1602,cal_abstract,2020.2.10,59.93744927699402,
,Fix1,stimuli/School/11.jpg,left,,,,,,,,,,,0,72,72,72,,,,,,,,,,,,,,,,,,,,,,,,,,,,,,,,,,,295.57800580200274,None,295.57800580200274,None,left,1,1.0041576949988666,295.57800580200274,None,1,296.611497787002,None,,,,,,,,,,,,,,,,,,,,,,,,,,,,,,,,,,,,,,,,,,,,,,,,,,,,,,,,,,,1,001,2021_Feb_23_1602,cal_abstract,2020.2.10,59.93744927699402,
,Fix1,stimuli/School/31.jpg,left,,,,,,,,,,,0,73,73,73,,,,,,,,,,,,,,,,,,,,,,,,,,,,,,,,,,,297.3782049700021,None,297.3782049700021,None,left,1,0.7699014899990289,297.3782049700021,None,1,298.1782998600029,None,,,,,,,,,,,,,,,,,,,,,,,,,,,,,,,,,,,,,,,,,,,,,,,,,,,,,,,,,,,1,001,2021_Feb_23_1602,cal_abstract,2020.2.10,59.93744927699402,
,Fix1,stimuli/School/21.jpg,left,,,,,,,,,,,0,74,74,74,,,,,,,,,,,,,,,,,,,,,,,,,,,,,,,,,,,298.94495245000144,None,298.94495245000144,None,left,1,3.1149890380002034,298.94495245000144,None,1,302.07847202000266,None,,,,,,,,,,,,,,,,,,,,,,,,,,,,,,,,,,,,,,,,,,,,,,,,,,,,,,,,,,,1,001,2021_Feb_23_1602,cal_abstract,2020.2.10,59.93744927699402,
,Fix1,stimuli/School/55.jpg,left,,,,,,,,,,,0,75,75,75,,,,,,,,,,,,,,,,,,,,,,,,,,,,,,,,,,,302.8455360450025,None,302.8455360450025,None,left,1,1.3169790799984185,302.8455360450025,None,1,304.1953325200011,None,,,,,,,,,,,,,,,,,,,,,,,,,,,,,,,,,,,,,,,,,,,,,,,,,,,,,,,,,,,1,001,2021_Feb_23_1602,cal_abstract,2020.2.10,59.93744927699402,
,Cond,stimuli/Small/32.jpg,right,,,,,,,,,,,0,76,76,76,,,,,,,,,,,,,,,,,,,,,,,,,,,,,,,,,,,304.96217197200167,None,304.96217197200167,None,right,1,3.4941412400003173,304.96217197200167,None,1,308.4789552220027,None,,,,,,,,,,,,,,,,,,,,,,,,,,,,,,,,,,,,,,,,,,,,,,,,,,,,,,,,,,,1,001,2021_Feb_23_1602,cal_abstract,2020.2.10,59.93744927699402,
,Fix2,stimuli/Dangerous/48.jpg,right,,,,,,,,,,,0,77,77,77,,,,,,,,,,,,,,,,,,,,,,,,,,,,,,,,,,,309.2457496349998,None,309.2457496349998,None,right,1,0.8752889300012612,309.2457496349998,None,1,310.14572772500105,None,,,,,,,,,,,,,,,,,,,,,,,,,,,,,,,,,,,,,,,,,,,,,,,,,,,,,,,,,,,1,001,2021_Feb_23_1602,cal_abstract,2020.2.10,59.93744927699402,
,Cond,stimuli/Small/5.jpg,left,,,,,,,,,,,0,78,78,78,,,,,,,,,,,,,,,,,,,,,,,,,,,,,,,,,,,310.9126711320023,None,310.9126711320023,None,left,1,1.195239684999251,310.9126711320023,None,1,312.12908932700157,None,,,,,,,,,,,,,,,,,,,,,,,,,,,,,,,,,,,,,,,,,,,,,,,,,,,,,,,,,,,1,001,2021_Feb_23_1602,cal_abstract,2020.2.10,59.93744927699402,
,Fix1,stimuli/School/37.jpg,left,,,,,,,,,,,0,79,79,79,,,,,,,,,,,,,,,,,,,,,,,,,,,,,,,,,,,312.8959252420027,None,312.8959252420027,None,left,1,1.4288315169978887,312.8959252420027,None,1,314.3459921370013,None,,,,,,,,,,,,,,,,,,,,,,,,,,,,,,,,,,,,,,,,,,,,,,,,,,,,,,,,,,,1,001,2021_Feb_23_1602,cal_abstract,2020.2.10,59.93744927699402,
,Fix1,stimuli/School/27.jpg,left,,,,,,,,,,,0,80,80,80,,,,,,,,,,,,,,,,,,,,,,,,,,,,,,,,,,,315.11279617000037,None,315.11279617000037,None,left,1,2.116128022000339,315.11279617000037,None,1,317.2458197199994,None,,,,,,,,,,,,,,,,,,,,,,,,,,,,,,,,,,,,,,,,,,,,,,,,,,,,,,,,,,,1,001,2021_Feb_23_1602,cal_abstract,2020.2.10,59.93744927699402,
,Cond,stimuli/Small/28.jpg,right,,,,,,,,,,,0,81,81,81,,,,,,,,,,,,,,,,,,,,,,,,,,,,,,,,,,,318.0128515150027,None,318.0128515150027,None,right,1,0.9426239620006527,318.0128515150027,None,1,318.97963297500246,None,,,,,,,,,,,,,,,,,,,,,,,,,,,,,,,,,,,,,,,,,,,,,,,,,,,,,,,,,,,1,001,2021_Feb_23_1602,cal_abstract,2020.2.10,59.93744927699402,
,Cond,stimuli/Small/30.jpg,left,,,,,,,,,,,0,82,82,82,,,,,,,,,,,,,,,,,,,,,,,,,,,,,,,,,,,319.74639302700234,None,319.74639302700234,None,left,1,1.9938892770005623,319.74639302700234,None,1,321.76320234000013,None,,,,,,,,,,,,,,,,,,,,,,,,,,,,,,,,,,,,,,,,,,,,,,,,,,,,,,,,,,,1,001,2021_Feb_23_1602,cal_abstract,2020.2.10,59.93744927699402,
,Fix1,stimuli/School/59.jpg,left,,,,,,,,,,,0,83,83,83,,,,,,,,,,,,,,,,,,,,,,,,,,,,,,,,,,,322.5298640220026,None,322.5298640220026,None,left,1,0.9873357649994432,322.5298640220026,None,1,323.5466723419995,None,,,,,,,,,,,,,,,,,,,,,,,,,,,,,,,,,,,,,,,,,,,,,,,,,,,,,,,,,,,1,001,2021_Feb_23_1602,cal_abstract,2020.2.10,59.93744927699402,
,Fix2,stimuli/Dangerous/7.jpg,right,,,,,,,,,,,0,84,84,84,,,,,,,,,,,,,,,,,,,,,,,,,,,,,,,,,,,324.31343322199973,None,324.31343322199973,None,right,1,2.44877199199982,324.31343322199973,None,1,326.7798824800011,None,,,,,,,,,,,,,,,,,,,,,,,,,,,,,,,,,,,,,,,,,,,,,,,,,,,,,,,,,,,1,001,2021_Feb_23_1602,cal_abstract,2020.2.10,59.93744927699402,
,Cond,stimuli/Small/37.jpg,left,,,,,,,,,,,0,85,85,85,,,,,,,,,,,,,,,,,,,,,,,,,,,,,,,,,,,327.5470590719997,None,327.5470590719997,None,left,1,0.6588251899993338,327.5470590719997,None,1,328.2302689900025,None,,,,,,,,,,,,,,,,,,,,,,,,,,,,,,,,,,,,,,,,,,,,,,,,,,,,,,,,,,,1,001,2021_Feb_23_1602,cal_abstract,2020.2.10,59.93744927699402,
,Fix1,stimuli/School/13.jpg,left,,,,,,,,,,,0,86,86,86,,,,,,,,,,,,,,,,,,,,,,,,,,,,,,,,,,,328.99726851000014,None,328.99726851000014,None,left,1,0.6825745999994979,328.99726851000014,None,1,329.69701734000046,None,,,,,,,,,,,,,,,,,,,,,,,,,,,,,,,,,,,,,,,,,,,,,,,,,,,,,,,,,,,1,001,2021_Feb_23_1602,cal_abstract,2020.2.10,59.93744927699402,
,Fix2,stimuli/Dangerous/14.jpg,right,,,,,,,,,,,0,87,87,87,,,,,,,,,,,,,,,,,,,,,,,,,,,,,,,,,,,330.4638900300015,None,330.4638900300015,None,right,1,1.2937796600017464,330.4638900300015,None,1,331.78021026200076,None,,,,,,,,,,,,,,,,,,,,,,,,,,,,,,,,,,,,,,,,,,,,,,,,,,,,,,,,,,,1,001,2021_Feb_23_1602,cal_abstract,2020.2.10,59.93744927699402,
,Cond,stimuli/Small/50.jpg,left,,,,,,,,,,,0,88,88,88,,,,,,,,,,,,,,,,,,,,,,,,,,,,,,,,,,,332.547291027,None,332.547291027,None,left,1,0.5472404620013549,332.547291027,None,1,333.11396720700213,None,,,,,,,,,,,,,,,,,,,,,,,,,,,,,,,,,,,,,,,,,,,,,,,,,,,,,,,,,,,1,001,2021_Feb_23_1602,cal_abstract,2020.2.10,59.93744927699402,
,Fix2,stimuli/Dangerous/63.jpg,right,,,,,,,,,,,0,89,89,89,,,,,,,,,,,,,,,,,,,,,,,,,,,,,,,,,,,333.8807164300015,None,333.8807164300015,None,right,1,0.6198300050018588,333.8807164300015,None,1,334.5307258850007,None,,,,,,,,,,,,,,,,,,,,,,,,,,,,,,,,,,,,,,,,,,,,,,,,,,,,,,,,,,,1,001,2021_Feb_23_1602,cal_abstract,2020.2.10,59.93744927699402,
,Fix2,stimuli/Dangerous/0.jpg,right,,,,,,,,,,,0,90,90,90,,,,,,,,,,,,,,,,,,,,,,,,,,,,,,,,,,,335.29695664999963,None,335.29695664999963,None,right,1,0.6074478970003838,335.29695664999963,None,1,335.93032159500217,None,,,,,,,,,,,,,,,,,,,,,,,,,,,,,,,,,,,,,,,,,,,,,,,,,,,,,,,,,,,1,001,2021_Feb_23_1602,cal_abstract,2020.2.10,59.93744927699402,
,Fix1,stimuli/School/32.jpg,left,,,,,,,,,,,0,91,91,91,,,,,,,,,,,,,,,,,,,,,,,,,,,,,,,,,,,336.69764465700064,None,336.69764465700064,None,left,1,0.8055244869974558,336.69764465700064,None,1,337.5308871800007,None,,,,,,,,,,,,,,,,,,,,,,,,,,,,,,,,,,,,,,,,,,,,,,,,,,,,,,,,,,,1,001,2021_Feb_23_1602,cal_abstract,2020.2.10,59.93744927699402,
,Fix1,stimuli/School/29.jpg,left,,,,,,,,,,,0,92,92,92,,,,,,,,,,,,,,,,,,,,,,,,,,,,,,,,,,,338.29794729700006,None,338.29794729700006,None,left,1,0.857244222999725,338.29794729700006,None,1,339.18106485500175,None,,,,,,,,,,,,,,,,,,,,,,,,,,,,,,,,,,,,,,,,,,,,,,,,,,,,,,,,,,,1,001,2021_Feb_23_1602,cal_abstract,2020.2.10,59.93744927699402,
,Cond,stimuli/Small/7.jpg,right,,,,,,,,,,,0,93,93,93,,,,,,,,,,,,,,,,,,,,,,,,,,,,,,,,,,,339.94769266500225,None,339.94769266500225,None,right,1,1.0664316969996435,339.94769266500225,None,1,341.0311677250029,None,,,,,,,,,,,,,,,,,,,,,,,,,,,,,,,,,,,,,,,,,,,,,,,,,,,,,,,,,,,1,001,2021_Feb_23_1602,cal_abstract,2020.2.10,59.93744927699402,
,Fix2,stimuli/Dangerous/19.jpg,right,,,,,,,,,,,0,94,94,94,,,,,,,,,,,,,,,,,,,,,,,,,,,,,,,,,,,341.79799022000225,None,341.79799022000225,None,right,1,0.9558520329992461,341.79799022000225,None,1,342.78112067000257,None,,,,,,,,,,,,,,,,,,,,,,,,,,,,,,,,,,,,,,,,,,,,,,,,,,,,,,,,,,,1,001,2021_Feb_23_1602,cal_abstract,2020.2.10,59.93744927699402,
,Cond,stimuli/Small/51.jpg,left,,,,,,,,,,,0,95,95,95,,,,,,,,,,,,,,,,,,,,,,,,,,,,,,,,,,,343.5481924920023,None,343.5481924920023,None,left,1,0.9505100399983348,343.5481924920023,None,1,344.53129460700075,None,,,,,,,,,,,,,,,,,,,,,,,,,,,,,,,,,,,,,,,,,,,,,,,,,,,,,,,,,,,1,001,2021_Feb_23_1602,cal_abstract,2020.2.10,59.93744927699402,
,Fix2,stimuli/Dangerous/4.jpg,right,,,,,,,,,,,0,96,96,96,,,,,,,,,,,,,,,,,,,,,,,,,,,,,,,,,,,345.29785430500124,None,345.29785430500124,None,right,1,1.5038182530006452,345.29785430500124,None,1,346.83151678000286,None,,,,,,,,,,,,,,,,,,,,,,,,,,,,,,,,,,,,,,,,,,,,,,,,,,,,,,,,,,,1,001,2021_Feb_23_1602,cal_abstract,2020.2.10,59.93744927699402,
,Cond,stimuli/Small/24.jpg,left,,,,,,,,,,,0,97,97,97,,,,,,,,,,,,,,,,,,,,,,,,,,,,,,,,,,,347.5981861649998,None,347.5981861649998,None,left,1,1.202255560001504,347.5981861649998,None,1,348.8316697250011,None,,,,,,,,,,,,,,,,,,,,,,,,,,,,,,,,,,,,,,,,,,,,,,,,,,,,,,,,,,,1,001,2021_Feb_23_1602,cal_abstract,2020.2.10,59.93744927699402,
,Fix1,stimuli/School/58.jpg,left,,,,,,,,,,,0,98,98,98,,,,,,,,,,,,,,,,,,,,,,,,,,,,,,,,,,,349.5984918300019,None,349.5984918300019,None,left,1,1.3079570080008125,349.5984918300019,None,1,350.93190641000183,None,,,,,,,,,,,,,,,,,,,,,,,,,,,,,,,,,,,,,,,,,,,,,,,,,,,,,,,,,,,1,001,2021_Feb_23_1602,cal_abstract,2020.2.10,59.93744927699402,
,Cond,stimuli/Small/35.jpg,right,,,,,,,,,,,0,99,99,99,,,,,,,,,,,,,,,,,,,,,,,,,,,,,,,,,,,351.6985656800025,None,351.6985656800025,None,left,0,0.8917796749992704,351.6985656800025,None,0,352.615329622,None,,,,,,,,,,,,,,,,,,,,,,,,,,,,,,,,,,,,,,,,,,,,,,,,,,,,,,,,,,,1,001,2021_Feb_23_1602,cal_abstract,2020.2.10,59.93744927699402,
,Cond,stimuli/Small/40.jpg,left,,,,,,,,,,,0,100,100,100,,,,,,,,,,,,,,,,,,,,,,,,,,,,,,,,,,,353.3816905620006,None,353.3816905620006,None,right,0,3.3736438419982733,353.3816905620006,None,0,356.7818985869999,None,,,,,,,,,,,,,,,,,,,,,,,,,,,,,,,,,,,,,,,,,,,,,,,,,,,,,,,,,,,1,001,2021_Feb_23_1602,cal_abstract,2020.2.10,59.93744927699402,
,Cond,stimuli/Small/3.jpg,right,,,,,,,,,,,0,101,101,101,,,,,,,,,,,,,,,,,,,,,,,,,,,,,,,,,,,357.5490174600018,None,357.5490174600018,None,right,1,4.5247996549987874,357.5490174600018,None,1,362.099438862002,None,,,,,,,,,,,,,,,,,,,,,,,,,,,,,,,,,,,,,,,,,,,,,,,,,,,,,,,,,,,1,001,2021_Feb_23_1602,cal_abstract,2020.2.10,59.93744927699402,
,Fix1,stimuli/School/38.jpg,left,,,,,,,,,,,0,102,102,102,,,,,,,,,,,,,,,,,,,,,,,,,,,,,,,,,,,362.8660572200024,None,362.8660572200024,None,left,1,0.9244550319999689,362.8660572200024,None,1,363.81613283000115,None,,,,,,,,,,,,,,,,,,,,,,,,,,,,,,,,,,,,,,,,,,,,,,,,,,,,,,,,,,,1,001,2021_Feb_23_1602,cal_abstract,2020.2.10,59.93744927699402,
,Fix2,stimuli/Dangerous/26.jpg,right,,,,,,,,,,,0,103,103,103,,,,,,,,,,,,,,,,,,,,,,,,,,,,,,,,,,,364.5994962469995,None,364.5994962469995,None,right,1,0.9767751120016328,364.5994962469995,None,1,365.59936499200194,None,,,,,,,,,,,,,,,,,,,,,,,,,,,,,,,,,,,,,,,,,,,,,,,,,,,,,,,,,,,1,001,2021_Feb_23_1602,cal_abstract,2020.2.10,59.93744927699402,
,Fix1,stimuli/School/51.jpg,left,,,,,,,,,,,0,104,104,104,,,,,,,,,,,,,,,,,,,,,,,,,,,,,,,,,,,366.3661022369997,None,366.3661022369997,None,left,1,0.9670869050023612,366.3661022369997,None,1,367.3662631870029,None,,,,,,,,,,,,,,,,,,,,,,,,,,,,,,,,,,,,,,,,,,,,,,,,,,,,,,,,,,,1,001,2021_Feb_23_1602,cal_abstract,2020.2.10,59.93744927699402,
,Cond,stimuli/Small/56.jpg,right,,,,,,,,,,,0,105,105,105,,,,,,,,,,,,,,,,,,,,,,,,,,,,,,,,,,,368.1333047700027,None,368.1333047700027,None,right,1,1.5208487099989725,368.1333047700027,None,1,369.6831642420002,None,,,,,,,,,,,,,,,,,,,,,,,,,,,,,,,,,,,,,,,,,,,,,,,,,,,,,,,,,,,1,001,2021_Feb_23_1602,cal_abstract,2020.2.10,59.93744927699402,
,Cond,stimuli/Small/44.jpg,left,,,,,,,,,,,0,106,106,106,,,,,,,,,,,,,,,,,,,,,,,,,,,,,,,,,,,370.45007302200247,None,370.45007302200247,None,left,1,1.0338253099980648,370.45007302200247,None,1,371.5164542050006,None,,,,,,,,,,,,,,,,,,,,,,,,,,,,,,,,,,,,,,,,,,,,,,,,,,,,,,,,,,,1,001,2021_Feb_23_1602,cal_abstract,2020.2.10,59.93744927699402,
,Fix2,stimuli/Dangerous/36.jpg,right,,,,,,,,,,,0,107,107,107,,,,,,,,,,,,,,,,,,,,,,,,,,,,,,,,,,,372.2833042020029,None,372.2833042020029,None,right,1,0.622503520000464,372.2833042020029,None,1,372.93348370700187,None,,,,,,,,,,,,,,,,,,,,,,,,,,,,,,,,,,,,,,,,,,,,,,,,,,,,,,,,,,,1,001,2021_Feb_23_1602,cal_abstract,2020.2.10,59.93744927699402,
,Cond,stimuli/Small/54.jpg,left,,,,,,,,,,,0,108,108,108,,,,,,,,,,,,,,,,,,,,,,,,,,,,,,,,,,,373.70011755700034,None,373.70011755700034,None,left,1,0.6567097949991876,373.70011755700034,None,1,374.38299549000294,None,,,,,,,,,,,,,,,,,,,,,,,,,,,,,,,,,,,,,,,,,,,,,,,,,,,,,,,,,,,1,001,2021_Feb_23_1602,cal_abstract,2020.2.10,59.93744927699402,
,Fix1,stimuli/School/0.jpg,left,,,,,,,,,,,0,109,109,109,,,,,,,,,,,,,,,,,,,,,,,,,,,,,,,,,,,375.15023162000216,None,375.15023162000216,None,left,1,1.8995622670008743,375.15023162000216,None,1,377.06691933000184,None,,,,,,,,,,,,,,,,,,,,,,,,,,,,,,,,,,,,,,,,,,,,,,,,,,,,,,,,,,,1,001,2021_Feb_23_1602,cal_abstract,2020.2.10,59.93744927699402,
,Fix1,stimuli/School/57.jpg,left,,,,,,,,,,,0,110,110,110,,,,,,,,,,,,,,,,,,,,,,,,,,,,,,,,,,,377.83377972000017,None,377.83377972000017,None,left,1,1.7736129270015226,377.83377972000017,None,1,379.63376414199956,None,,,,,,,,,,,,,,,,,,,,,,,,,,,,,,,,,,,,,,,,,,,,,,,,,,,,,,,,,,,1,001,2021_Feb_23_1602,cal_abstract,2020.2.10,59.93744927699402,
,Fix1,stimuli/School/24.jpg,left,,,,,,,,,,,0,111,111,111,,,,,,,,,,,,,,,,,,,,,,,,,,,,,,,,,,,380.4006117370009,None,380.4006117370009,None,left,1,1.0126447750008083,380.4006117370009,None,1,381.43366013500054,None,,,,,,,,,,,,,,,,,,,,,,,,,,,,,,,,,,,,,,,,,,,,,,,,,,,,,,,,,,,1,001,2021_Feb_23_1602,cal_abstract,2020.2.10,59.93744927699402,
,Fix2,stimuli/Dangerous/45.jpg,right,,,,,,,,,,,0,112,112,112,,,,,,,,,,,,,,,,,,,,,,,,,,,,,,,,,,,382.20067828000174,None,382.20067828000174,None,right,1,0.7286735499983479,382.20067828000174,None,1,382.95069536200026,None,,,,,,,,,,,,,,,,,,,,,,,,,,,,,,,,,,,,,,,,,,,,,,,,,,,,,,,,,,,1,001,2021_Feb_23_1602,cal_abstract,2020.2.10,59.93744927699402,
,Fix2,stimuli/Dangerous/40.jpg,right,,,,,,,,,,,0,113,113,113,,,,,,,,,,,,,,,,,,,,,,,,,,,,,,,,,,,383.71755012700305,None,383.71755012700305,None,right,1,1.2826724349979486,383.71755012700305,None,1,385.0175917350025,None,,,,,,,,,,,,,,,,,,,,,,,,,,,,,,,,,,,,,,,,,,,,,,,,,,,,,,,,,,,1,001,2021_Feb_23_1602,cal_abstract,2020.2.10,59.93744927699402,
,Fix2,stimuli/Dangerous/39.jpg,right,,,,,,,,,,,0,114,114,114,,,,,,,,,,,,,,,,,,,,,,,,,,,,,,,,,,,385.7843204720011,None,385.7843204720011,None,right,1,0.8227255220008374,385.7843204720011,None,1,386.63433324700236,None,,,,,,,,,,,,,,,,,,,,,,,,,,,,,,,,,,,,,,,,,,,,,,,,,,,,,,,,,,,1,001,2021_Feb_23_1602,cal_abstract,2020.2.10,59.93744927699402,
,Cond,stimuli/Small/59.jpg,left,,,,,,,,,,,0,115,115,115,,,,,,,,,,,,,,,,,,,,,,,,,,,,,,,,,,,387.3998611120005,None,387.3998611120005,None,left,1,0.9601137950012344,387.3998611120005,None,1,388.3844071720014,None,,,,,,,,,,,,,,,,,,,,,,,,,,,,,,,,,,,,,,,,,,,,,,,,,,,,,,,,,,,1,001,2021_Feb_23_1602,cal_abstract,2020.2.10,59.93744927699402,
,Fix2,stimuli/Dangerous/21.jpg,right,,,,,,,,,,,0,116,116,116,,,,,,,,,,,,,,,,,,,,,,,,,,,,,,,,,,,389.1511753820014,None,389.1511753820014,None,right,1,0.502687230000447,389.1511753820014,None,1,389.684514392,None,,,,,,,,,,,,,,,,,,,,,,,,,,,,,,,,,,,,,,,,,,,,,,,,,,,,,,,,,,,1,001,2021_Feb_23_1602,cal_abstract,2020.2.10,59.93744927699402,
,Fix1,stimuli/School/15.jpg,left,,,,,,,,,,,0,117,117,117,,,,,,,,,,,,,,,,,,,,,,,,,,,,,,,,,,,390.4513108150022,None,390.4513108150022,None,left,1,2.9033512730020448,390.4513108150022,None,1,393.38480294700275,None,,,,,,,,,,,,,,,,,,,,,,,,,,,,,,,,,,,,,,,,,,,,,,,,,,,,,,,,,,,1,001,2021_Feb_23_1602,cal_abstract,2020.2.10,59.93744927699402,
,Fix1,stimuli/School/5.jpg,left,,,,,,,,,,,0,118,118,118,,,,,,,,,,,,,,,,,,,,,,,,,,,,,,,,,,,394.1515659470024,None,394.1515659470024,None,left,1,13.301137272002961,394.1515659470024,None,1,407.48584088200005,None,,,,,,,,,,,,,,,,,,,,,,,,,,,,,,,,,,,,,,,,,,,,,,,,,,,,,,,,,,,1,001,2021_Feb_23_1602,cal_abstract,2020.2.10,59.93744927699402,
,Fix1,stimuli/School/46.jpg,left,,,,,,,,,,,0,119,119,119,,,,,,,,,,,,,,,,,,,,,,,,,,,,,,,,,,,408.2525398220023,None,408.2525398220023,None,left,1,2.714787709999655,408.2525398220023,None,1,410.9860447900028,None,,,,,,,,,,,,,,,,,,,,,,,,,,,,,,,,,,,,,,,,,,,,,,,,,,,,,,,,,,,1,001,2021_Feb_23_1602,cal_abstract,2020.2.10,59.93744927699402,
,Fix1,stimuli/School/4.jpg,left,,,,,,,,,,,0,120,120,120,,,,,,,,,,,,,,,,,,,,,,,,,,,,,,,,,,,411.75300503200197,None,411.75300503200197,None,left,1,1.676012890002312,411.75300503200197,None,1,413.4528005050015,None,,,,,,,,,,,,,,,,,,,,,,,,,,,,,,,,,,,,,,,,,,,,,,,,,,,,,,,,,,,1,001,2021_Feb_23_1602,cal_abstract,2020.2.10,59.93744927699402,
,Fix2,stimuli/Dangerous/8.jpg,right,,,,,,,,,,,0,121,121,121,,,,,,,,,,,,,,,,,,,,,,,,,,,,,,,,,,,414.2195848650008,None,414.2195848650008,None,right,1,1.0485278269989067,414.2195848650008,None,1,415.28516044700154,None,,,,,,,,,,,,,,,,,,,,,,,,,,,,,,,,,,,,,,,,,,,,,,,,,,,,,,,,,,,1,001,2021_Feb_23_1602,cal_abstract,2020.2.10,59.93744927699402,
,Fix2,stimuli/Dangerous/17.jpg,right,,,,,,,,,,,0,122,122,122,,,,,,,,,,,,,,,,,,,,,,,,,,,,,,,,,,,416.0529696550002,None,416.0529696550002,None,right,1,0.6199115849994996,416.0529696550002,None,1,416.7031393750003,None,,,,,,,,,,,,,,,,,,,,,,,,,,,,,,,,,,,,,,,,,,,,,,,,,,,,,,,,,,,1,001,2021_Feb_23_1602,cal_abstract,2020.2.10,59.93744927699402,
,Fix2,stimuli/Dangerous/1.jpg,right,,,,,,,,,,,0,123,123,123,,,,,,,,,,,,,,,,,,,,,,,,,,,,,,,,,,,417.46972693200223,None,417.46972693200223,None,right,1,0.8039832829999796,417.46972693200223,None,1,418.3032027400004,None,,,,,,,,,,,,,,,,,,,,,,,,,,,,,,,,,,,,,,,,,,,,,,,,,,,,,,,,,,,1,001,2021_Feb_23_1602,cal_abstract,2020.2.10,59.93744927699402,
,Fix1,stimuli/School/3.jpg,left,,,,,,,,,,,0,124,124,124,,,,,,,,,,,,,,,,,,,,,,,,,,,,,,,,,,,419.0700433870006,None,419.0700433870006,None,left,1,1.0146367170018493,419.0700433870006,None,1,420.10344024200094,None,,,,,,,,,,,,,,,,,,,,,,,,,,,,,,,,,,,,,,,,,,,,,,,,,,,,,,,,,,,1,001,2021_Feb_23_1602,cal_abstract,2020.2.10,59.93744927699402,
,Fix2,stimuli/Dangerous/37.jpg,right,,,,,,,,,,,0,125,125,125,,,,,,,,,,,,,,,,,,,,,,,,,,,,,,,,,,,420.8701705269996,None,420.8701705269996,None,right,1,0.7671586200012825,420.8701705269996,None,1,421.6700581549994,None,,,,,,,,,,,,,,,,,,,,,,,,,,,,,,,,,,,,,,,,,,,,,,,,,,,,,,,,,,,1,001,2021_Feb_23_1602,cal_abstract,2020.2.10,59.93744927699402,
,Fix1,stimuli/School/22.jpg,left,,,,,,,,,,,0,126,126,126,,,,,,,,,,,,,,,,,,,,,,,,,,,,,,,,,,,422.4361952770014,None,422.4361952770014,None,left,1,0.6391653919999953,422.4361952770014,None,1,423.1035621299998,None,,,,,,,,,,,,,,,,,,,,,,,,,,,,,,,,,,,,,,,,,,,,,,,,,,,,,,,,,,,1,001,2021_Feb_23_1602,cal_abstract,2020.2.10,59.93744927699402,
,Fix2,stimuli/Dangerous/51.jpg,right,,,,,,,,,,,0,127,127,127,,,,,,,,,,,,,,,,,,,,,,,,,,,,,,,,,,,423.8704872820017,None,423.8704872820017,None,right,1,1.2126477250021708,423.8704872820017,None,1,425.10343615199963,None,,,,,,,,,,,,,,,,,,,,,,,,,,,,,,,,,,,,,,,,,,,,,,,,,,,,,,,,,,,1,001,2021_Feb_23_1602,cal_abstract,2020.2.10,59.93744927699402,
,Cond,stimuli/Small/6.jpg,left,,,,,,,,,,,0,128,128,128,,,,,,,,,,,,,,,,,,,,,,,,,,,,,,,,,,,425.87042054700214,None,425.87042054700214,None,left,1,1.4295731550009805,425.87042054700214,None,1,427.32049811199977,None,,,,,,,,,,,,,,,,,,,,,,,,,,,,,,,,,,,,,,,,,,,,,,,,,,,,,,,,,,,1,001,2021_Feb_23_1602,cal_abstract,2020.2.10,59.93744927699402,
,Fix1,stimuli/School/12.jpg,left,,,,,,,,,,,0,129,129,129,,,,,,,,,,,,,,,,,,,,,,,,,,,,,,,,,,,428.0871925900028,None,428.0871925900028,None,left,1,0.7798087499977555,428.0871925900028,None,1,428.8870694899997,None,,,,,,,,,,,,,,,,,,,,,,,,,,,,,,,,,,,,,,,,,,,,,,,,,,,,,,,,,,,1,001,2021_Feb_23_1602,cal_abstract,2020.2.10,59.93744927699402,
,Fix2,stimuli/Dangerous/13.jpg,right,,,,,,,,,,,0,130,130,130,,,,,,,,,,,,,,,,,,,,,,,,,,,,,,,,,,,429.65389316000073,None,429.65389316000073,None,right,1,1.4239205699996091,429.65389316000073,None,1,431.10397232000105,None,,,,,,,,,,,,,,,,,,,,,,,,,,,,,,,,,,,,,,,,,,,,,,,,,,,,,,,,,,,1,001,2021_Feb_23_1602,cal_abstract,2020.2.10,59.93744927699402,
,Fix1,stimuli/School/49.jpg,left,,,,,,,,,,,0,131,131,131,,,,,,,,,,,,,,,,,,,,,,,,,,,,,,,,,,,431.87074585200025,None,431.87074585200025,None,left,1,0.8069187229993986,431.87074585200025,None,1,432.7040831270024,None,,,,,,,,,,,,,,,,,,,,,,,,,,,,,,,,,,,,,,,,,,,,,,,,,,,,,,,,,,,1,001,2021_Feb_23_1602,cal_abstract,2020.2.10,59.93744927699402,
,Fix2,stimuli/Dangerous/2.jpg,right,,,,,,,,,,,0,132,132,132,,,,,,,,,,,,,,,,,,,,,,,,,,,,,,,,,,,433.47095499200077,None,433.47095499200077,None,right,1,0.6947465129996999,433.47095499200077,None,1,434.1875843119997,None,,,,,,,,,,,,,,,,,,,,,,,,,,,,,,,,,,,,,,,,,,,,,,,,,,,,,,,,,,,1,001,2021_Feb_23_1602,cal_abstract,2020.2.10,59.93744927699402,
,Cond,stimuli/Small/52.jpg,left,,,,,,,,,,,0,133,133,133,,,,,,,,,,,,,,,,,,,,,,,,,,,,,,,,,,,434.95437366999977,None,434.95437366999977,None,left,1,0.8393114899990906,434.95437366999977,None,1,435.8205815149995,None,,,,,,,,,,,,,,,,,,,,,,,,,,,,,,,,,,,,,,,,,,,,,,,,,,,,,,,,,,,1,001,2021_Feb_23_1602,cal_abstract,2020.2.10,59.93744927699402,
,Cond,stimuli/Small/27.jpg,right,,,,,,,,,,,0,134,134,134,,,,,,,,,,,,,,,,,,,,,,,,,,,,,,,,,,,436.5878085250006,None,436.5878085250006,None,right,1,1.2377137600014976,436.5878085250006,None,1,437.8543671970001,None,,,,,,,,,,,,,,,,,,,,,,,,,,,,,,,,,,,,,,,,,,,,,,,,,,,,,,,,,,,1,001,2021_Feb_23_1602,cal_abstract,2020.2.10,59.93744927699402,
,Fix1,stimuli/School/41.jpg,left,,,,,,,,,,,0,135,135,135,,,,,,,,,,,,,,,,,,,,,,,,,,,,,,,,,,,438.6213417050021,None,438.6213417050021,None,left,1,0.8008744799990382,438.6213417050021,None,1,439.4546119170009,None,,,,,,,,,,,,,,,,,,,,,,,,,,,,,,,,,,,,,,,,,,,,,,,,,,,,,,,,,,,1,001,2021_Feb_23_1602,cal_abstract,2020.2.10,59.93744927699402,
,Fix1,stimuli/School/40.jpg,left,,,,,,,,,,,0,136,136,136,,,,,,,,,,,,,,,,,,,,,,,,,,,,,,,,,,,440.22149155700026,None,440.22149155700026,None,left,1,0.7796447700020508,440.22149155700026,None,1,441.0213056550019,None,,,,,,,,,,,,,,,,,,,,,,,,,,,,,,,,,,,,,,,,,,,,,,,,,,,,,,,,,,,1,001,2021_Feb_23_1602,cal_abstract,2020.2.10,59.93744927699402,
,Fix2,stimuli/Dangerous/57.jpg,right,,,,,,,,,,,0,137,137,137,,,,,,,,,,,,,,,,,,,,,,,,,,,,,,,,,,,441.78824044000066,None,441.78824044000066,None,right,1,1.5787570220018097,441.78824044000066,None,1,443.3870673240017,None,,,,,,,,,,,,,,,,,,,,,,,,,,,,,,,,,,,,,,,,,,,,,,,,,,,,,,,,,,,1,001,2021_Feb_23_1602,cal_abstract,2020.2.10,59.93744927699402,
,Cond,stimuli/Small/21.jpg,left,,,,,,,,,,,0,138,138,138,,,,,,,,,,,,,,,,,,,,,,,,,,,,,,,,,,,444.155254395002,None,444.155254395002,None,left,1,1.0978259570001683,444.155254395002,None,1,445.27156301500145,None,,,,,,,,,,,,,,,,,,,,,,,,,,,,,,,,,,,,,,,,,,,,,,,,,,,,,,,,,,,1,001,2021_Feb_23_1602,cal_abstract,2020.2.10,59.93744927699402,
,Cond,stimuli/Small/48.jpg,right,,,,,,,,,,,0,139,139,139,,,,,,,,,,,,,,,,,,,,,,,,,,,,,,,,,,,446.03850627000065,None,446.03850627000065,None,right,1,0.6502903580003476,446.03850627000065,None,1,446.7218339650026,None,,,,,,,,,,,,,,,,,,,,,,,,,,,,,,,,,,,,,,,,,,,,,,,,,,,,,,,,,,,1,001,2021_Feb_23_1602,cal_abstract,2020.2.10,59.93744927699402,
,Fix2,stimuli/Dangerous/12.jpg,right,,,,,,,,,,,0,140,140,140,,,,,,,,,,,,,,,,,,,,,,,,,,,,,,,,,,,447.4881565200012,None,447.4881565200012,None,right,1,4.51796883499992,447.4881565200012,None,1,452.038792612002,None,,,,,,,,,,,,,,,,,,,,,,,,,,,,,,,,,,,,,,,,,,,,,,,,,,,,,,,,,,,1,001,2021_Feb_23_1602,cal_abstract,2020.2.10,59.93744927699402,
,Fix1,stimuli/School/2.jpg,left,,,,,,,,,,,0,141,141,141,,,,,,,,,,,,,,,,,,,,,,,,,,,,,,,,,,,452.8058303350008,None,452.8058303350008,None,left,1,0.6754620479987352,452.8058303350008,None,1,453.50573986699965,None,,,,,,,,,,,,,,,,,,,,,,,,,,,,,,,,,,,,,,,,,,,,,,,,,,,,,,,,,,,1,001,2021_Feb_23_1602,cal_abstract,2020.2.10,59.93744927699402,
,Fix1,stimuli/School/16.jpg,left,,,,,,,,,,,0,142,142,142,,,,,,,,,,,,,,,,,,,,,,,,,,,,,,,,,,,454.272363510001,None,454.272363510001,None,left,1,0.7858042699990619,454.272363510001,None,1,455.08903154200016,None,,,,,,,,,,,,,,,,,,,,,,,,,,,,,,,,,,,,,,,,,,,,,,,,,,,,,,,,,,,1,001,2021_Feb_23_1602,cal_abstract,2020.2.10,59.93744927699402,
,Fix2,stimuli/Dangerous/23.jpg,right,,,,,,,,,,,0,143,143,143,,,,,,,,,,,,,,,,,,,,,,,,,,,,,,,,,,,455.85599642500165,None,455.85599642500165,None,right,1,0.7261150429985719,455.85599642500165,None,1,456.60576246700293,None,,,,,,,,,,,,,,,,,,,,,,,,,,,,,,,,,,,,,,,,,,,,,,,,,,,,,,,,,,,1,001,2021_Feb_23_1602,cal_abstract,2020.2.10,59.93744927699402,
,Fix2,stimuli/Dangerous/5.jpg,right,,,,,,,,,,,0,144,144,144,,,,,,,,,,,,,,,,,,,,,,,,,,,,,,,,,,,457.3725980050003,None,457.3725980050003,None,right,1,0.7314386649995868,457.3725980050003,None,1,458.1226051920021,None,,,,,,,,,,,,,,,,,,,,,,,,,,,,,,,,,,,,,,,,,,,,,,,,,,,,,,,,,,,1,001,2021_Feb_23_1602,cal_abstract,2020.2.10,59.93744927699402,
,Fix2,stimuli/Dangerous/56.jpg,right,,,,,,,,,,,0,145,145,145,,,,,,,,,,,,,,,,,,,,,,,,,,,,,,,,,,,458.88934898700245,None,458.88934898700245,None,right,1,0.7514211099987733,458.88934898700245,None,1,459.6727563220011,None,,,,,,,,,,,,,,,,,,,,,,,,,,,,,,,,,,,,,,,,,,,,,,,,,,,,,,,,,,,1,001,2021_Feb_23_1602,cal_abstract,2020.2.10,59.93744927699402,
,Cond,stimuli/Small/22.jpg,left,,,,,,,,,,,0,146,146,146,,,,,,,,,,,,,,,,,,,,,,,,,,,,,,,,,,,460.43923476500277,None,460.43923476500277,None,left,1,0.7875831599994854,460.43923476500277,None,1,461.25510668500283,None,,,,,,,,,,,,,,,,,,,,,,,,,,,,,,,,,,,,,,,,,,,,,,,,,,,,,,,,,,,1,001,2021_Feb_23_1602,cal_abstract,2020.2.10,59.93744927699402,
,Fix1,stimuli/School/7.jpg,left,,,,,,,,,,,0,147,147,147,,,,,,,,,,,,,,,,,,,,,,,,,,,,,,,,,,,462.02295893500195,None,462.02295893500195,None,left,1,0.8937568420005846,462.02295893500195,None,1,462.9396114770025,None,,,,,,,,,,,,,,,,,,,,,,,,,,,,,,,,,,,,,,,,,,,,,,,,,,,,,,,,,,,1,001,2021_Feb_23_1602,cal_abstract,2020.2.10,59.93744927699402,
,Fix1,stimuli/School/43.jpg,left,,,,,,,,,,,0,148,148,148,,,,,,,,,,,,,,,,,,,,,,,,,,,,,,,,,,,463.70594176000304,None,463.70594176000304,None,left,1,1.0685008449981979,463.70594176000304,None,1,464.8060014470029,None,,,,,,,,,,,,,,,,,,,,,,,,,,,,,,,,,,,,,,,,,,,,,,,,,,,,,,,,,,,1,001,2021_Feb_23_1602,cal_abstract,2020.2.10,59.93744927699402,
,Fix2,stimuli/Dangerous/27.jpg,right,,,,,,,,,,,0,149,149,149,,,,,,,,,,,,,,,,,,,,,,,,,,,,,,,,,,,465.57316017700214,None,465.57316017700214,None,right,1,1.33141490199705,465.57316017700214,None,1,466.9233345450011,None,,,,,,,,,,,,,,,,,,,,,,,,,,,,,,,,,,,,,,,,,,,,,,,,,,,,,,,,,,,1,001,2021_Feb_23_1602,cal_abstract,2020.2.10,59.93744927699402,
,,,,,,,,,,,,,,,,,,,,,,,,,,,,,,,,,,,,,,,,,,,,,,,,,,,,,,,,,,,,,,,,467.6733107600012,None,c,5.85532061000049,467.6733107600012,None,,,,,,,,,,,,,,,,,,,,,,,,,,,,,,,,,,,,,,,,,,,,,,,,,,,,,1,001,2021_Feb_23_1602,cal_abstract,2020.2.10,59.93744927699402,
,,,,,,,,,,,,,,,,,,,,,,,,,,,,,,,,,,,,,,,,,,,,,,,,,,,,,,,,,,,,,,,,,,,,,,473.55707753200113,None,473.55707753200113,None,s,2.1999911999992037,473.55707753200113,None,,,,,,,,,,,,,,,,,,,,,,,,,,,,,,,,,,,,,,,,,,,,,1,001,2021_Feb_23_1602,cal_abstract,2020.2.10,59.93744927699402,
,,,,Fix2,stimuli/Healthy/38.jpg,left,,,,,,,,,,,,0,0,0,0,,,,,,,,,,,,,,,,,,,,,,,,,,,,,,,,,,,,,,,,0,,,,,,,,,,,,,,,,,475.79077104099997,None,475.79077104099997,None,right,0,4.348907564999536,475.79077104099997,None,480.15713436200167,None,,,,,,,,,,,,,,,,,,,,,,,,,,,,,,,,,,1,001,2021_Feb_23_1602,cal_abstract,2020.2.10,59.93744927699402,
,,,,Fix1,stimuli/Old/36.jpg,right,,,,,,,,,,,,0,1,1,1,,,,,,,,,,,,,,,,,,,,,,,,,,,,,,,,,,,,,,,,1,,,,,,,,,,,,,,,,,480.9241883499999,None,480.9241883499999,None,right,1,3.30607111000063,480.9241883499999,None,484.2570841119996,None,,,,,,,,,,,,,,,,,,,,,,,,,,,,,,,,,,1,001,2021_Feb_23_1602,cal_abstract,2020.2.10,59.93744927699402,
,,,,Cond,stimuli/Wealth/56.jpg,left,,,,,,,,,,,,0,2,2,2,,,,,,,,,,,,,,,,,,,,,,,,,,,,,,,,,,,,,,,,1,,,,,,,,,,,,,,,,,485.0243784400009,None,485.0243784400009,None,left,1,10.535011077998206,485.0243784400009,None,495.59196599200004,None,,,,,,,,,,,,,,,,,,,,,,,,,,,,,,,,,,1,001,2021_Feb_23_1602,cal_abstract,2020.2.10,59.93744927699402,
,,,,Fix1,stimuli/Old/58.jpg,right,,,,,,,,,,,,0,3,3,3,,,,,,,,,,,,,,,,,,,,,,,,,,,,,,,,,,,,,,,,1,,,,,,,,,,,,,,,,,496.3586005850011,None,496.3586005850011,None,right,1,10.709052162001171,496.3586005850011,None,507.09258428500107,None,,,,,,,,,,,,,,,,,,,,,,,,,,,,,,,,,,1,001,2021_Feb_23_1602,cal_abstract,2020.2.10,59.93744927699402,
,,,,Fix2,stimuli/Healthy/67.jpg,left,,,,,,,,,,,,0,4,4,4,,,,,,,,,,,,,,,,,,,,,,,,,,,,,,,,,,,,,,,,1,,,,,,,,,,,,,,,,,507.8594472500008,None,507.8594472500008,None,left,1,3.344101866998244,507.8594472500008,None,511.2263769420024,None,,,,,,,,,,,,,,,,,,,,,,,,,,,,,,,,,,1,001,2021_Feb_23_1602,cal_abstract,2020.2.10,59.93744927699402,
,,,,Fix1,stimuli/Old/40.jpg,right,,,,,,,,,,,,0,5,5,5,,,,,,,,,,,,,,,,,,,,,,,,,,,,,,,,,,,,,,,,1,,,,,,,,,,,,,,,,,511.99308955000015,None,511.99308955000015,None,right,1,8.699456710000959,511.99308955000015,None,520.7102168570018,None,,,,,,,,,,,,,,,,,,,,,,,,,,,,,,,,,,1,001,2021_Feb_23_1602,cal_abstract,2020.2.10,59.93744927699402,
,,,,Fix1,stimuli/Old/55.jpg,right,,,,,,,,,,,,0,6,6,6,,,,,,,,,,,,,,,,,,,,,,,,,,,,,,,,,,,,,,,,1,,,,,,,,,,,,,,,,,521.4770524000014,None,521.4770524000014,None,right,1,0.9043935699992289,521.4770524000014,None,522.4091097150013,None,,,,,,,,,,,,,,,,,,,,,,,,,,,,,,,,,,1,001,2021_Feb_23_1602,cal_abstract,2020.2.10,59.93744927699402,
,,,,Fix2,stimuli/Healthy/37.jpg,left,,,,,,,,,,,,0,7,7,7,,,,,,,,,,,,,,,,,,,,,,,,,,,,,,,,,,,,,,,,1,,,,,,,,,,,,,,,,,523.1771225850025,None,523.1771225850025,None,left,1,1.6903693120002572,523.1771225850025,None,524.893914100001,None,,,,,,,,,,,,,,,,,,,,,,,,,,,,,,,,,,1,001,2021_Feb_23_1602,cal_abstract,2020.2.10,59.93744927699402,
,,,,Fix2,stimuli/Healthy/13.jpg,left,,,,,,,,,,,,0,8,8,8,,,,,,,,,,,,,,,,,,,,,,,,,,,,,,,,,,,,,,,,1,,,,,,,,,,,,,,,,,525.6601339549998,None,525.6601339549998,None,left,1,0.7312833770010911,525.6601339549998,None,526.4105742419997,None,,,,,,,,,,,,,,,,,,,,,,,,,,,,,,,,,,1,001,2021_Feb_23_1602,cal_abstract,2020.2.10,59.93744927699402,
,,,,Fix2,stimuli/Healthy/10.jpg,left,,,,,,,,,,,,0,9,9,9,,,,,,,,,,,,,,,,,,,,,,,,,,,,,,,,,,,,,,,,1,,,,,,,,,,,,,,,,,527.1774762320019,None,527.1774762320019,None,left,1,1.049692304997734,527.1774762320019,None,528.2608420550023,None,,,,,,,,,,,,,,,,,,,,,,,,,,,,,,,,,,1,001,2021_Feb_23_1602,cal_abstract,2020.2.10,59.93744927699402,
,,,,Cond,stimuli/Wealth/5.jpg,right,,,,,,,,,,,,0,10,10,10,,,,,,,,,,,,,,,,,,,,,,,,,,,,,,,,,,,,,,,,1,,,,,,,,,,,,,,,,,529.0274433520026,None,529.0274433520026,None,right,1,1.657694800000172,529.0274433520026,None,530.7108087820015,None,,,,,,,,,,,,,,,,,,,,,,,,,,,,,,,,,,1,001,2021_Feb_23_1602,cal_abstract,2020.2.10,59.93744927699402,
,,,,Fix2,stimuli/Healthy/1.jpg,left,,,,,,,,,,,,0,11,11,11,,,,,,,,,,,,,,,,,,,,,,,,,,,,,,,,,,,,,,,,1,,,,,,,,,,,,,,,,,531.4772047450024,None,531.4772047450024,None,left,1,53.2643618080001,531.4772047450024,None,584.764672690002,None,,,,,,,,,,,,,,,,,,,,,,,,,,,,,,,,,,1,001,2021_Feb_23_1602,cal_abstract,2020.2.10,59.93744927699402,
,,,,Fix1,stimuli/Old/20.jpg,right,,,,,,,,,,,,0,12,12,12,,,,,,,,,,,,,,,,,,,,,,,,,,,,,,,,,,,,,,,,1,,,,,,,,,,,,,,,,,585.5313608720026,None,585.5313608720026,None,right,1,2.3615767049996066,585.5313608720026,None,587.9148533100015,None,,,,,,,,,,,,,,,,,,,,,,,,,,,,,,,,,,1,001,2021_Feb_23_1602,cal_abstract,2020.2.10,59.93744927699402,
,,,,Fix2,stimuli/Healthy/4.jpg,left,,,,,,,,,,,,0,13,13,13,,,,,,,,,,,,,,,,,,,,,,,,,,,,,,,,,,,,,,,,1,,,,,,,,,,,,,,,,,588.6810402270021,None,588.6810402270021,None,left,1,1.232850772998063,588.6810402270021,None,589.9317735700024,None,,,,,,,,,,,,,,,,,,,,,,,,,,,,,,,,,,1,001,2021_Feb_23_1602,cal_abstract,2020.2.10,59.93744927699402,
,,,,Cond,stimuli/Wealth/41.jpg,right,,,,,,,,,,,,0,14,14,14,,,,,,,,,,,,,,,,,,,,,,,,,,,,,,,,,,,,,,,,1,,,,,,,,,,,,,,,,,590.6979733700027,None,590.6979733700027,None,right,1,2.8436084629975085,590.6979733700027,None,593.5652951820011,None,,,,,,,,,,,,,,,,,,,,,,,,,,,,,,,,,,1,001,2021_Feb_23_1602,cal_abstract,2020.2.10,59.93744927699402,
,,,,Cond,stimuli/Wealth/57.jpg,left,,,,,,,,,,,,0,15,15,15,,,,,,,,,,,,,,,,,,,,,,,,,,,,,,,,,,,,,,,,1,,,,,,,,,,,,,,,,,594.3321505700005,None,594.3321505700005,None,left,1,1.1802864800010866,594.3321505700005,None,595.5318011449999,None,,,,,,,,,,,,,,,,,,,,,,,,,,,,,,,,,,1,001,2021_Feb_23_1602,cal_abstract,2020.2.10,59.93744927699402,
,,,,Fix2,stimuli/Healthy/58.jpg,left,,,,,,,,,,,,0,16,16,16,,,,,,,,,,,,,,,,,,,,,,,,,,,,,,,,,,,,,,,,0,,,,,,,,,,,,,,,,,596.298335337,None,596.298335337,None,right,0,1.1720003920017916,596.298335337,None,597.4990420400027,None,,,,,,,,,,,,,,,,,,,,,,,,,,,,,,,,,,1,001,2021_Feb_23_1602,cal_abstract,2020.2.10,59.93744927699402,
,,,,Fix1,stimuli/Old/49.jpg,right,,,,,,,,,,,,0,17,17,17,,,,,,,,,,,,,,,,,,,,,,,,,,,,,,,,,,,,,,,,1,,,,,,,,,,,,,,,,,598.265675040002,None,598.265675040002,None,right,1,2.9769447799990303,598.265675040002,None,601.2660510420028,None,,,,,,,,,,,,,,,,,,,,,,,,,,,,,,,,,,1,001,2021_Feb_23_1602,cal_abstract,2020.2.10,59.93744927699402,
,,,,Fix1,stimuli/Old/29.jpg,right,,,,,,,,,,,,0,18,18,18,,,,,,,,,,,,,,,,,,,,,,,,,,,,,,,,,,,,,,,,1,,,,,,,,,,,,,,,,,602.0326841950009,None,602.0326841950009,None,right,1,3.2891342399998393,602.0326841950009,None,605.3493801950026,None,,,,,,,,,,,,,,,,,,,,,,,,,,,,,,,,,,1,001,2021_Feb_23_1602,cal_abstract,2020.2.10,59.93744927699402,
,,,,Cond,stimuli/Wealth/26.jpg,left,,,,,,,,,,,,0,19,19,19,,,,,,,,,,,,,,,,,,,,,,,,,,,,,,,,,,,,,,,,1,,,,,,,,,,,,,,,,,606.1162984500006,None,606.1162984500006,None,left,1,1.8033195520001755,606.1162984500006,None,607.9496020600018,None,,,,,,,,,,,,,,,,,,,,,,,,,,,,,,,,,,1,001,2021_Feb_23_1602,cal_abstract,2020.2.10,59.93744927699402,
,,,,Fix1,stimuli/Old/37.jpg,right,,,,,,,,,,,,0,20,20,20,,,,,,,,,,,,,,,,,,,,,,,,,,,,,,,,,,,,,,,,1,,,,,,,,,,,,,,,,,608.716365940003,None,608.716365940003,None,right,1,0.6532480780006154,608.716365940003,None,609.3997154720018,None,,,,,,,,,,,,,,,,,,,,,,,,,,,,,,,,,,1,001,2021_Feb_23_1602,cal_abstract,2020.2.10,59.93744927699402,
,,,,Fix2,stimuli/Healthy/42.jpg,left,,,,,,,,,,,,0,21,21,21,,,,,,,,,,,,,,,,,,,,,,,,,,,,,,,,,,,,,,,,1,,,,,,,,,,,,,,,,,610.1664058420029,None,610.1664058420029,None,left,1,1.0058794780015887,610.1664058420029,None,611.1999423550005,None,,,,,,,,,,,,,,,,,,,,,,,,,,,,,,,,,,1,001,2021_Feb_23_1602,cal_abstract,2020.2.10,59.93744927699402,
,,,,Fix2,stimuli/Healthy/55.jpg,left,,,,,,,,,,,,0,22,22,22,,,,,,,,,,,,,,,,,,,,,,,,,,,,,,,,,,,,,,,,1,,,,,,,,,,,,,,,,,611.9664726500014,None,611.9664726500014,None,left,1,0.8058592470006261,611.9664726500014,None,612.8000504949996,None,,,,,,,,,,,,,,,,,,,,,,,,,,,,,,,,,,1,001,2021_Feb_23_1602,cal_abstract,2020.2.10,59.93744927699402,
,,,,Fix1,stimuli/Old/15.jpg,right,,,,,,,,,,,,0,23,23,23,,,,,,,,,,,,,,,,,,,,,,,,,,,,,,,,,,,,,,,,1,,,,,,,,,,,,,,,,,613.5666500900006,None,613.5666500900006,None,right,1,1.3195945970001048,613.5666500900006,None,614.9167642050015,None,,,,,,,,,,,,,,,,,,,,,,,,,,,,,,,,,,1,001,2021_Feb_23_1602,cal_abstract,2020.2.10,59.93744927699402,
,,,,Fix2,stimuli/Healthy/8.jpg,left,,,,,,,,,,,,0,24,24,24,,,,,,,,,,,,,,,,,,,,,,,,,,,,,,,,,,,,,,,,1,,,,,,,,,,,,,,,,,615.6834970870004,None,615.6834970870004,None,left,1,0.7915535800020734,615.6834970870004,None,616.5001153850026,None,,,,,,,,,,,,,,,,,,,,,,,,,,,,,,,,,,1,001,2021_Feb_23_1602,cal_abstract,2020.2.10,59.93744927699402,
,,,,Cond,stimuli/Wealth/17.jpg,right,,,,,,,,,,,,0,25,25,25,,,,,,,,,,,,,,,,,,,,,,,,,,,,,,,,,,,,,,,,1,,,,,,,,,,,,,,,,,617.2670873150018,None,617.2670873150018,None,right,1,2.2428290419993573,617.2670873150018,None,619.5336383650028,None,,,,,,,,,,,,,,,,,,,,,,,,,,,,,,,,,,1,001,2021_Feb_23_1602,cal_abstract,2020.2.10,59.93744927699402,
,,,,Cond,stimuli/Wealth/27.jpg,left,,,,,,,,,,,,0,26,26,26,,,,,,,,,,,,,,,,,,,,,,,,,,,,,,,,,,,,,,,,1,,,,,,,,,,,,,,,,,620.3003057200003,None,620.3003057200003,None,left,1,0.8774986450007418,620.3003057200003,None,621.2006296720028,None,,,,,,,,,,,,,,,,,,,,,,,,,,,,,,,,,,1,001,2021_Feb_23_1602,cal_abstract,2020.2.10,59.93744927699402,
,,,,Cond,stimuli/Wealth/0.jpg,right,,,,,,,,,,,,0,27,27,27,,,,,,,,,,,,,,,,,,,,,,,,,,,,,,,,,,,,,,,,1,,,,,,,,,,,,,,,,,621.9669544099997,None,621.9669544099997,None,right,1,0.7037639030022547,621.9669544099997,None,622.70051418,None,,,,,,,,,,,,,,,,,,,,,,,,,,,,,,,,,,1,001,2021_Feb_23_1602,cal_abstract,2020.2.10,59.93744927699402,
,,,,Fix2,stimuli/Healthy/5.jpg,left,,,,,,,,,,,,0,28,28,28,,,,,,,,,,,,,,,,,,,,,,,,,,,,,,,,,,,,,,,,1,,,,,,,,,,,,,,,,,623.4673332920029,None,623.4673332920029,None,left,1,0.7671254499982751,623.4673332920029,None,624.2674728870006,None,,,,,,,,,,,,,,,,,,,,,,,,,,,,,,,,,,1,001,2021_Feb_23_1602,cal_abstract,2020.2.10,59.93744927699402,
,,,,Fix2,stimuli/Healthy/29.jpg,left,,,,,,,,,,,,0,29,29,29,,,,,,,,,,,,,,,,,,,,,,,,,,,,,,,,,,,,,,,,1,,,,,,,,,,,,,,,,,625.0343269900004,None,625.0343269900004,None,left,1,0.5741907150004408,625.0343269900004,None,625.6340985250026,None,,,,,,,,,,,,,,,,,,,,,,,,,,,,,,,,,,1,001,2021_Feb_23_1602,cal_abstract,2020.2.10,59.93744927699402,
,,,,Cond,stimuli/Wealth/53.jpg,right,,,,,,,,,,,,0,30,30,30,,,,,,,,,,,,,,,,,,,,,,,,,,,,,,,,,,,,,,,,1,,,,,,,,,,,,,,,,,626.4005244850014,None,626.4005244850014,None,right,1,0.8478362270034268,626.4005244850014,None,627.2676426819999,None,,,,,,,,,,,,,,,,,,,,,,,,,,,,,,,,,,1,001,2021_Feb_23_1602,cal_abstract,2020.2.10,59.93744927699402,
,,,,Fix1,stimuli/Old/2.jpg,right,,,,,,,,,,,,0,31,31,31,,,,,,,,,,,,,,,,,,,,,,,,,,,,,,,,,,,,,,,,1,,,,,,,,,,,,,,,,,628.0343578300017,None,628.0343578300017,None,right,1,1.1279335880026338,628.0343578300017,None,629.1844022350015,None,,,,,,,,,,,,,,,,,,,,,,,,,,,,,,,,,,1,001,2021_Feb_23_1602,cal_abstract,2020.2.10,59.93744927699402,
,,,,Fix2,stimuli/Healthy/7.jpg,left,,,,,,,,,,,,0,32,32,32,,,,,,,,,,,,,,,,,,,,,,,,,,,,,,,,,,,,,,,,1,,,,,,,,,,,,,,,,,629.9512536420007,None,629.9512536420007,None,left,1,0.9199892149990774,629.9512536420007,None,630.9012105000002,None,,,,,,,,,,,,,,,,,,,,,,,,,,,,,,,,,,1,001,2021_Feb_23_1602,cal_abstract,2020.2.10,59.93744927699402,
,,,,Fix1,stimuli/Old/7.jpg,right,,,,,,,,,,,,0,33,33,33,,,,,,,,,,,,,,,,,,,,,,,,,,,,,,,,,,,,,,,,1,,,,,,,,,,,,,,,,,631.6679293820016,None,631.6679293820016,None,right,1,0.8701476250025735,631.6679293820016,None,632.5678991870009,None,,,,,,,,,,,,,,,,,,,,,,,,,,,,,,,,,,1,001,2021_Feb_23_1602,cal_abstract,2020.2.10,59.93744927699402,
,,,,Cond,stimuli/Wealth/10.jpg,left,,,,,,,,,,,,0,34,34,34,,,,,,,,,,,,,,,,,,,,,,,,,,,,,,,,,,,,,,,,1,,,,,,,,,,,,,,,,,633.3348348069994,None,633.3348348069994,None,left,1,1.000978345000476,633.3348348069994,None,634.3679977850006,None,,,,,,,,,,,,,,,,,,,,,,,,,,,,,,,,,,1,001,2021_Feb_23_1602,cal_abstract,2020.2.10,59.93744927699402,
,,,,Fix2,stimuli/Healthy/68.jpg,left,,,,,,,,,,,,0,35,35,35,,,,,,,,,,,,,,,,,,,,,,,,,,,,,,,,,,,,,,,,1,,,,,,,,,,,,,,,,,635.134954262001,None,635.134954262001,None,left,1,0.6017795329971705,635.134954262001,None,635.768189450002,None,,,,,,,,,,,,,,,,,,,,,,,,,,,,,,,,,,1,001,2021_Feb_23_1602,cal_abstract,2020.2.10,59.93744927699402,
,,,,Cond,stimuli/Wealth/24.jpg,right,,,,,,,,,,,,0,36,36,36,,,,,,,,,,,,,,,,,,,,,,,,,,,,,,,,,,,,,,,,0,,,,,,,,,,,,,,,,,636.534973752001,None,636.534973752001,None,left,0,1.6505948470003204,636.534973752001,None,638.2181815969998,None,,,,,,,,,,,,,,,,,,,,,,,,,,,,,,,,,,1,001,2021_Feb_23_1602,cal_abstract,2020.2.10,59.93744927699402,
,,,,Cond,stimuli/Wealth/12.jpg,left,,,,,,,,,,,,0,37,37,37,,,,,,,,,,,,,,,,,,,,,,,,,,,,,,,,,,,,,,,,0,,,,,,,,,,,,,,,,,638.9850972269996,None,638.9850972269996,None,right,0,1.045490125001379,638.9850972269996,None,640.0519207319994,None,,,,,,,,,,,,,,,,,,,,,,,,,,,,,,,,,,1,001,2021_Feb_23_1602,cal_abstract,2020.2.10,59.93744927699402,
,,,,Fix2,stimuli/Healthy/20.jpg,left,,,,,,,,,,,,0,38,38,38,,,,,,,,,,,,,,,,,,,,,,,,,,,,,,,,,,,,,,,,1,,,,,,,,,,,,,,,,,640.8186625369999,None,640.8186625369999,None,left,1,1.6137517720017058,640.8186625369999,None,642.4514145850007,None,,,,,,,,,,,,,,,,,,,,,,,,,,,,,,,,,,1,001,2021_Feb_23_1602,cal_abstract,2020.2.10,59.93744927699402,
,,,,Fix2,stimuli/Healthy/44.jpg,left,,,,,,,,,,,,0,39,39,39,,,,,,,,,,,,,,,,,,,,,,,,,,,,,,,,,,,,,,,,1,,,,,,,,,,,,,,,,,643.2188328699995,None,643.2188328699995,None,left,1,64.42676059799851,643.2188328699995,None,707.673138240003,None,,,,,,,,,,,,,,,,,,,,,,,,,,,,,,,,,,1,001,2021_Feb_23_1602,cal_abstract,2020.2.10,59.93744927699402,
,,,,Fix2,stimuli/Healthy/27.jpg,left,,,,,,,,,,,,0,40,40,40,,,,,,,,,,,,,,,,,,,,,,,,,,,,,,,,,,,,,,,,1,,,,,,,,,,,,,,,,,708.4392603320011,None,708.4392603320011,None,left,1,1.3422882249979011,708.4392603320011,None,709.8069100720022,None,,,,,,,,,,,,,,,,,,,,,,,,,,,,,,,,,,1,001,2021_Feb_23_1602,cal_abstract,2020.2.10,59.93744927699402,
,,,,Fix2,stimuli/Healthy/59.jpg,left,,,,,,,,,,,,0,41,41,41,,,,,,,,,,,,,,,,,,,,,,,,,,,,,,,,,,,,,,,,1,,,,,,,,,,,,,,,,,710.5734114650004,None,710.5734114650004,None,left,1,1.299022581999452,710.5734114650004,None,711.8901440420013,None,,,,,,,,,,,,,,,,,,,,,,,,,,,,,,,,,,1,001,2021_Feb_23_1602,cal_abstract,2020.2.10,59.93744927699402,
,,,,Fix1,stimuli/Old/46.jpg,right,,,,,,,,,,,,0,42,42,42,,,,,,,,,,,,,,,,,,,,,,,,,,,,,,,,,,,,,,,,1,,,,,,,,,,,,,,,,,712.6568670100023,None,712.6568670100023,None,right,1,1.404407670001092,712.6568670100023,None,714.0903231470002,None,,,,,,,,,,,,,,,,,,,,,,,,,,,,,,,,,,1,001,2021_Feb_23_1602,cal_abstract,2020.2.10,59.93744927699402,
,,,,Fix2,stimuli/Healthy/39.jpg,left,,,,,,,,,,,,0,43,43,43,,,,,,,,,,,,,,,,,,,,,,,,,,,,,,,,,,,,,,,,1,,,,,,,,,,,,,,,,,714.8567909900012,None,714.8567909900012,None,left,1,0.7242166369978804,714.8567909900012,None,715.6072650599999,None,,,,,,,,,,,,,,,,,,,,,,,,,,,,,,,,,,1,001,2021_Feb_23_1602,cal_abstract,2020.2.10,59.93744927699402,
,,,,Fix1,stimuli/Old/38.jpg,right,,,,,,,,,,,,0,44,44,44,,,,,,,,,,,,,,,,,,,,,,,,,,,,,,,,,,,,,,,,1,,,,,,,,,,,,,,,,,716.3738686420002,None,716.3738686420002,None,right,1,1.4041866379993735,716.3738686420002,None,717.8072466400008,None,,,,,,,,,,,,,,,,,,,,,,,,,,,,,,,,,,1,001,2021_Feb_23_1602,cal_abstract,2020.2.10,59.93744927699402,
,,,,Fix2,stimuli/Healthy/66.jpg,left,,,,,,,,,,,,0,45,45,45,,,,,,,,,,,,,,,,,,,,,,,,,,,,,,,,,,,,,,,,1,,,,,,,,,,,,,,,,,718.5739549749997,None,718.5739549749997,None,left,1,0.9980425249996188,718.5739549749997,None,719.5904140920029,None,,,,,,,,,,,,,,,,,,,,,,,,,,,,,,,,,,1,001,2021_Feb_23_1602,cal_abstract,2020.2.10,59.93744927699402,
,,,,Fix1,stimuli/Old/17.jpg,right,,,,,,,,,,,,0,46,46,46,,,,,,,,,,,,,,,,,,,,,,,,,,,,,,,,,,,,,,,,1,,,,,,,,,,,,,,,,,720.3574951650007,None,720.3574951650007,None,right,1,1.0972955399993225,720.3574951650007,None,721.4741033120008,None,,,,,,,,,,,,,,,,,,,,,,,,,,,,,,,,,,1,001,2021_Feb_23_1602,cal_abstract,2020.2.10,59.93744927699402,
,,,,Fix1,stimuli/Old/14.jpg,right,,,,,,,,,,,,0,47,47,47,,,,,,,,,,,,,,,,,,,,,,,,,,,,,,,,,,,,,,,,1,,,,,,,,,,,,,,,,,722.2395275600029,None,722.2395275600029,None,right,1,0.9961576150017208,722.2395275600029,None,723.2576212700005,None,,,,,,,,,,,,,,,,,,,,,,,,,,,,,,,,,,1,001,2021_Feb_23_1602,cal_abstract,2020.2.10,59.93744927699402,
,,,,Cond,stimuli/Wealth/43.jpg,left,,,,,,,,,,,,0,48,48,48,,,,,,,,,,,,,,,,,,,,,,,,,,,,,,,,,,,,,,,,1,,,,,,,,,,,,,,,,,724.0229105409999,None,724.0229105409999,None,left,1,1.2666723750007804,724.0229105409999,None,725.3074066370027,None,,,,,,,,,,,,,,,,,,,,,,,,,,,,,,,,,,1,001,2021_Feb_23_1602,cal_abstract,2020.2.10,59.93744927699402,
,,,,Fix2,stimuli/Healthy/41.jpg,left,,,,,,,,,,,,0,49,49,49,,,,,,,,,,,,,,,,,,,,,,,,,,,,,,,,,,,,,,,,1,,,,,,,,,,,,,,,,,726.0744702949996,None,726.0744702949996,None,left,1,1.8990768050025508,726.0744702949996,None,727.9911954870004,None,,,,,,,,,,,,,,,,,,,,,,,,,,,,,,,,,,1,001,2021_Feb_23_1602,cal_abstract,2020.2.10,59.93744927699402,
,,,,Cond,stimuli/Wealth/40.jpg,right,,,,,,,,,,,,0,50,50,50,,,,,,,,,,,,,,,,,,,,,,,,,,,,,,,,,,,,,,,,1,,,,,,,,,,,,,,,,,728.7581277400022,None,728.7581277400022,None,right,1,0.8492980699993495,728.7581277400022,None,729.624379410001,None,,,,,,,,,,,,,,,,,,,,,,,,,,,,,,,,,,1,001,2021_Feb_23_1602,cal_abstract,2020.2.10,59.93744927699402,
,,,,Fix1,stimuli/Old/43.jpg,right,,,,,,,,,,,,0,51,51,51,,,,,,,,,,,,,,,,,,,,,,,,,,,,,,,,,,,,,,,,1,,,,,,,,,,,,,,,,,730.3914088970014,None,730.3914088970014,None,right,1,0.9698428400006378,730.3914088970014,None,731.3915658650003,None,,,,,,,,,,,,,,,,,,,,,,,,,,,,,,,,,,1,001,2021_Feb_23_1602,cal_abstract,2020.2.10,59.93744927699402,
,,,,Cond,stimuli/Wealth/44.jpg,left,,,,,,,,,,,,0,52,52,52,,,,,,,,,,,,,,,,,,,,,,,,,,,,,,,,,,,,,,,,1,,,,,,,,,,,,,,,,,732.1579120820024,None,732.1579120820024,None,left,1,1.6559487220001756,732.1579120820024,None,733.8417121020029,None,,,,,,,,,,,,,,,,,,,,,,,,,,,,,,,,,,1,001,2021_Feb_23_1602,cal_abstract,2020.2.10,59.93744927699402,
,,,,Fix1,stimuli/Old/10.jpg,right,,,,,,,,,,,,0,53,53,53,,,,,,,,,,,,,,,,,,,,,,,,,,,,,,,,,,,,,,,,1,,,,,,,,,,,,,,,,,734.6083704320008,None,734.6083704320008,None,right,1,0.8705677049983933,734.6083704320008,None,735.5083501450026,None,,,,,,,,,,,,,,,,,,,,,,,,,,,,,,,,,,1,001,2021_Feb_23_1602,cal_abstract,2020.2.10,59.93744927699402,
,,,,Fix1,stimuli/Old/3.jpg,right,,,,,,,,,,,,0,54,54,54,,,,,,,,,,,,,,,,,,,,,,,,,,,,,,,,,,,,,,,,1,,,,,,,,,,,,,,,,,736.2748264900001,None,736.2748264900001,None,right,1,1.5138369669984968,736.2748264900001,None,737.8085376199997,None,,,,,,,,,,,,,,,,,,,,,,,,,,,,,,,,,,1,001,2021_Feb_23_1602,cal_abstract,2020.2.10,59.93744927699402,
,,,,Cond,stimuli/Wealth/13.jpg,left,,,,,,,,,,,,0,55,55,55,,,,,,,,,,,,,,,,,,,,,,,,,,,,,,,,,,,,,,,,1,,,,,,,,,,,,,,,,,738.5753317320014,None,738.5753317320014,None,left,1,4.57598130200131,738.5753317320014,None,743.1753212020012,None,,,,,,,,,,,,,,,,,,,,,,,,,,,,,,,,,,1,001,2021_Feb_23_1602,cal_abstract,2020.2.10,59.93744927699402,
,,,,Cond,stimuli/Wealth/14.jpg,right,,,,,,,,,,,,0,56,56,56,,,,,,,,,,,,,,,,,,,,,,,,,,,,,,,,,,,,,,,,1,,,,,,,,,,,,,,,,,743.942063450002,None,743.942063450002,None,right,1,0.6431374780004262,743.942063450002,None,744.6090126320014,None,,,,,,,,,,,,,,,,,,,,,,,,,,,,,,,,,,1,001,2021_Feb_23_1602,cal_abstract,2020.2.10,59.93744927699402,
,,,,Fix2,stimuli/Healthy/65.jpg,left,,,,,,,,,,,,0,57,57,57,,,,,,,,,,,,,,,,,,,,,,,,,,,,,,,,,,,,,,,,1,,,,,,,,,,,,,,,,,745.3759271119998,None,745.3759271119998,None,left,1,2.9981685599996126,745.3759271119998,None,748.3922040450016,None,,,,,,,,,,,,,,,,,,,,,,,,,,,,,,,,,,1,001,2021_Feb_23_1602,cal_abstract,2020.2.10,59.93744927699402,
,,,,Cond,stimuli/Wealth/45.jpg,right,,,,,,,,,,,,0,58,58,58,,,,,,,,,,,,,,,,,,,,,,,,,,,,,,,,,,,,,,,,1,,,,,,,,,,,,,,,,,749.1592550720015,None,749.1592550720015,None,right,1,0.940577689998463,749.1592550720015,None,750.1259825050001,None,,,,,,,,,,,,,,,,,,,,,,,,,,,,,,,,,,1,001,2021_Feb_23_1602,cal_abstract,2020.2.10,59.93744927699402,
,,,,Cond,stimuli/Wealth/31.jpg,left,,,,,,,,,,,,0,59,59,59,,,,,,,,,,,,,,,,,,,,,,,,,,,,,,,,,,,,,,,,1,,,,,,,,,,,,,,,,,750.8928293999998,None,750.8928293999998,None,left,1,0.8727358530013589,750.8928293999998,None,751.7928801369999,None,,,,,,,,,,,,,,,,,,,,,,,,,,,,,,,,,,1,001,2021_Feb_23_1602,cal_abstract,2020.2.10,59.93744927699402,
,,,,Cond,stimuli/Wealth/46.jpg,right,,,,,,,,,,,,0,60,60,60,,,,,,,,,,,,,,,,,,,,,,,,,,,,,,,,,,,,,,,,1,,,,,,,,,,,,,,,,,752.559663070002,None,752.559663070002,None,right,1,1.5700098820016137,752.559663070002,None,754.1595790520005,None,,,,,,,,,,,,,,,,,,,,,,,,,,,,,,,,,,1,001,2021_Feb_23_1602,cal_abstract,2020.2.10,59.93744927699402,
,,,,Cond,stimuli/Wealth/52.jpg,left,,,,,,,,,,,,0,61,61,61,,,,,,,,,,,,,,,,,,,,,,,,,,,,,,,,,,,,,,,,1,,,,,,,,,,,,,,,,,754.9265470550017,None,754.9265470550017,None,left,1,0.7490944119999767,754.9265470550017,None,755.6928514950014,None,,,,,,,,,,,,,,,,,,,,,,,,,,,,,,,,,,1,001,2021_Feb_23_1602,cal_abstract,2020.2.10,59.93744927699402,
,,,,Fix2,stimuli/Healthy/51.jpg,left,,,,,,,,,,,,0,62,62,62,,,,,,,,,,,,,,,,,,,,,,,,,,,,,,,,,,,,,,,,1,,,,,,,,,,,,,,,,,756.4593412419999,None,756.4593412419999,None,left,1,0.7720676749995619,756.4593412419999,None,757.2600394920009,None,,,,,,,,,,,,,,,,,,,,,,,,,,,,,,,,,,1,001,2021_Feb_23_1602,cal_abstract,2020.2.10,59.93744927699402,
,,,,Fix2,stimuli/Healthy/32.jpg,left,,,,,,,,,,,,0,63,63,63,,,,,,,,,,,,,,,,,,,,,,,,,,,,,,,,,,,,,,,,1,,,,,,,,,,,,,,,,,758.0266509370012,None,758.0266509370012,None,left,1,0.9184935129997029,758.0266509370012,None,758.9766834000002,None,,,,,,,,,,,,,,,,,,,,,,,,,,,,,,,,,,1,001,2021_Feb_23_1602,cal_abstract,2020.2.10,59.93744927699402,
,,,,Fix2,stimuli/Healthy/45.jpg,left,,,,,,,,,,,,0,64,64,64,,,,,,,,,,,,,,,,,,,,,,,,,,,,,,,,,,,,,,,,1,,,,,,,,,,,,,,,,,759.7435157770014,None,759.7435157770014,None,left,1,0.5466914550015645,759.7435157770014,None,760.3102621800026,None,,,,,,,,,,,,,,,,,,,,,,,,,,,,,,,,,,1,001,2021_Feb_23_1602,cal_abstract,2020.2.10,59.93744927699402,
,,,,Cond,stimuli/Wealth/19.jpg,right,,,,,,,,,,,,0,65,65,65,,,,,,,,,,,,,,,,,,,,,,,,,,,,,,,,,,,,,,,,1,,,,,,,,,,,,,,,,,761.0769132470014,None,761.0769132470014,None,right,1,0.7391986900001939,761.0769132470014,None,761.8423887419995,None,,,,,,,,,,,,,,,,,,,,,,,,,,,,,,,,,,1,001,2021_Feb_23_1602,cal_abstract,2020.2.10,59.93744927699402,
,,,,Fix1,stimuli/Old/8.jpg,right,,,,,,,,,,,,0,66,66,66,,,,,,,,,,,,,,,,,,,,,,,,,,,,,,,,,,,,,,,,1,,,,,,,,,,,,,,,,,762.6104988100014,None,762.6104988100014,None,right,1,1.1655755150022742,762.6104988100014,None,763.7935239150029,None,,,,,,,,,,,,,,,,,,,,,,,,,,,,,,,,,,1,001,2021_Feb_23_1602,cal_abstract,2020.2.10,59.93744927699402,
,,,,Cond,stimuli/Wealth/22.jpg,left,,,,,,,,,,,,0,67,67,67,,,,,,,,,,,,,,,,,,,,,,,,,,,,,,,,,,,,,,,,1,,,,,,,,,,,,,,,,,764.5604217399996,None,764.5604217399996,None,left,1,4.19514962500034,764.5604217399996,None,768.7772574900009,None,,,,,,,,,,,,,,,,,,,,,,,,,,,,,,,,,,1,001,2021_Feb_23_1602,cal_abstract,2020.2.10,59.93744927699402,
,,,,Cond,stimuli/Wealth/11.jpg,right,,,,,,,,,,,,0,68,68,68,,,,,,,,,,,,,,,,,,,,,,,,,,,,,,,,,,,,,,,,1,,,,,,,,,,,,,,,,,769.5440724120017,None,769.5440724120017,None,right,1,0.7920595949981362,769.5440724120017,None,770.3611176770028,None,,,,,,,,,,,,,,,,,,,,,,,,,,,,,,,,,,1,001,2021_Feb_23_1602,cal_abstract,2020.2.10,59.93744927699402,
,,,,Fix2,stimuli/Healthy/43.jpg,left,,,,,,,,,,,,0,69,69,69,,,,,,,,,,,,,,,,,,,,,,,,,,,,,,,,,,,,,,,,1,,,,,,,,,,,,,,,,,771.127593565001,None,771.127593565001,None,left,1,0.5872562559998187,771.127593565001,None,771.7429386809999,None,,,,,,,,,,,,,,,,,,,,,,,,,,,,,,,,,,1,001,2021_Feb_23_1602,cal_abstract,2020.2.10,59.93744927699402,
,,,,Fix2,stimuli/Healthy/6.jpg,left,,,,,,,,,,,,0,70,70,70,,,,,,,,,,,,,,,,,,,,,,,,,,,,,,,,,,,,,,,,1,,,,,,,,,,,,,,,,,772.510934670001,None,772.510934670001,None,left,1,0.5860314230012591,772.510934670001,None,773.1276428199999,None,,,,,,,,,,,,,,,,,,,,,,,,,,,,,,,,,,1,001,2021_Feb_23_1602,cal_abstract,2020.2.10,59.93744927699402,
,,,,Fix1,stimuli/Old/21.jpg,right,,,,,,,,,,,,0,71,71,71,,,,,,,,,,,,,,,,,,,,,,,,,,,,,,,,,,,,,,,,1,,,,,,,,,,,,,,,,,773.8934332690005,None,773.8934332690005,None,right,1,1.243423399002495,773.8934332690005,None,775.1611273570015,None,,,,,,,,,,,,,,,,,,,,,,,,,,,,,,,,,,1,001,2021_Feb_23_1602,cal_abstract,2020.2.10,59.93744927699402,
,,,,Fix2,stimuli/Healthy/9.jpg,left,,,,,,,,,,,,0,72,72,72,,,,,,,,,,,,,,,,,,,,,,,,,,,,,,,,,,,,,,,,1,,,,,,,,,,,,,,,,,775.927909127,None,775.927909127,None,left,1,26.71417364700028,775.927909127,None,802.6630172850018,None,,,,,,,,,,,,,,,,,,,,,,,,,,,,,,,,,,1,001,2021_Feb_23_1602,cal_abstract,2020.2.10,59.93744927699402,
,,,,Cond,stimuli/Wealth/51.jpg,right,,,,,,,,,,,,0,73,73,73,,,,,,,,,,,,,,,,,,,,,,,,,,,,,,,,,,,,,,,,1,,,,,,,,,,,,,,,,,803.4293665570003,None,803.4293665570003,None,right,1,0.7956028830012656,803.4293665570003,None,804.246103487003,None,,,,,,,,,,,,,,,,,,,,,,,,,,,,,,,,,,1,001,2021_Feb_23_1602,cal_abstract,2020.2.10,59.93744927699402,
,,,,Fix1,stimuli/Old/54.jpg,right,,,,,,,,,,,,0,74,74,74,,,,,,,,,,,,,,,,,,,,,,,,,,,,,,,,,,,,,,,,1,,,,,,,,,,,,,,,,,805.0131441550002,None,805.0131441550002,None,right,1,0.6997804479979095,805.0131441550002,None,805.7298221220008,None,,,,,,,,,,,,,,,,,,,,,,,,,,,,,,,,,,1,001,2021_Feb_23_1602,cal_abstract,2020.2.10,59.93744927699402,
,,,,Fix2,stimuli/Healthy/53.jpg,left,,,,,,,,,,,,0,75,75,75,,,,,,,,,,,,,,,,,,,,,,,,,,,,,,,,,,,,,,,,1,,,,,,,,,,,,,,,,,806.4968129120025,None,806.4968129120025,None,left,1,1.5998619880010665,806.4968129120025,None,808.1296027400022,None,,,,,,,,,,,,,,,,,,,,,,,,,,,,,,,,,,1,001,2021_Feb_23_1602,cal_abstract,2020.2.10,59.93744927699402,
,,,,Cond,stimuli/Wealth/49.jpg,right,,,,,,,,,,,,0,76,76,76,,,,,,,,,,,,,,,,,,,,,,,,,,,,,,,,,,,,,,,,1,,,,,,,,,,,,,,,,,808.8968460249998,None,808.8968460249998,None,right,1,1.1016037249974033,808.8968460249998,None,810.0302866400016,None,,,,,,,,,,,,,,,,,,,,,,,,,,,,,,,,,,1,001,2021_Feb_23_1602,cal_abstract,2020.2.10,59.93744927699402,
,,,,Fix1,stimuli/Old/0.jpg,right,,,,,,,,,,,,0,77,77,77,,,,,,,,,,,,,,,,,,,,,,,,,,,,,,,,,,,,,,,,1,,,,,,,,,,,,,,,,,810.7961748640009,None,810.7961748640009,None,right,1,0.9562482879991876,810.7961748640009,None,811.7803236850013,None,,,,,,,,,,,,,,,,,,,,,,,,,,,,,,,,,,1,001,2021_Feb_23_1602,cal_abstract,2020.2.10,59.93744927699402,
,,,,Cond,stimuli/Wealth/28.jpg,left,,,,,,,,,,,,0,78,78,78,,,,,,,,,,,,,,,,,,,,,,,,,,,,,,,,,,,,,,,,1,,,,,,,,,,,,,,,,,812.5471369469997,None,812.5471369469997,None,left,1,0.8722000500019931,812.5471369469997,None,813.447031802003,None,,,,,,,,,,,,,,,,,,,,,,,,,,,,,,,,,,1,001,2021_Feb_23_1602,cal_abstract,2020.2.10,59.93744927699402,
,,,,Cond,stimuli/Wealth/20.jpg,right,,,,,,,,,,,,0,79,79,79,,,,,,,,,,,,,,,,,,,,,,,,,,,,,,,,,,,,,,,,0,,,,,,,,,,,,,,,,,814.2133555800028,None,814.2133555800028,None,left,0,0.6079036030023417,814.2133555800028,None,814.8471224950008,None,,,,,,,,,,,,,,,,,,,,,,,,,,,,,,,,,,1,001,2021_Feb_23_1602,cal_abstract,2020.2.10,59.93744927699402,
,,,,Fix1,stimuli/Old/47.jpg,right,,,,,,,,,,,,0,80,80,80,,,,,,,,,,,,,,,,,,,,,,,,,,,,,,,,,,,,,,,,1,,,,,,,,,,,,,,,,,815.6141614650005,None,815.6141614650005,None,right,1,0.698228172997915,815.6141614650005,None,816.3302767300011,None,,,,,,,,,,,,,,,,,,,,,,,,,,,,,,,,,,1,001,2021_Feb_23_1602,cal_abstract,2020.2.10,59.93744927699402,
,,,,Cond,stimuli/Wealth/55.jpg,left,,,,,,,,,,,,0,81,81,81,,,,,,,,,,,,,,,,,,,,,,,,,,,,,,,,,,,,,,,,1,,,,,,,,,,,,,,,,,817.0971530919996,None,817.0971530919996,None,left,1,1.0159554400015622,817.0971530919996,None,818.130828415,None,,,,,,,,,,,,,,,,,,,,,,,,,,,,,,,,,,1,001,2021_Feb_23_1602,cal_abstract,2020.2.10,59.93744927699402,
,,,,Cond,stimuli/Wealth/37.jpg,right,,,,,,,,,,,,0,82,82,82,,,,,,,,,,,,,,,,,,,,,,,,,,,,,,,,,,,,,,,,1,,,,,,,,,,,,,,,,,818.8817697020022,None,818.8817697020022,None,right,1,1.6871702530006587,818.8817697020022,None,820.5973245070018,None,,,,,,,,,,,,,,,,,,,,,,,,,,,,,,,,,,1,001,2021_Feb_23_1602,cal_abstract,2020.2.10,59.93744927699402,
,,,,Fix2,stimuli/Healthy/3.jpg,left,,,,,,,,,,,,0,83,83,83,,,,,,,,,,,,,,,,,,,,,,,,,,,,,,,,,,,,,,,,1,,,,,,,,,,,,,,,,,821.3643525500011,None,821.3643525500011,None,left,1,0.8653760850029357,821.3643525500011,None,822.2463768170019,None,,,,,,,,,,,,,,,,,,,,,,,,,,,,,,,,,,1,001,2021_Feb_23_1602,cal_abstract,2020.2.10,59.93744927699402,
,,,,Fix1,stimuli/Old/16.jpg,right,,,,,,,,,,,,0,84,84,84,,,,,,,,,,,,,,,,,,,,,,,,,,,,,,,,,,,,,,,,1,,,,,,,,,,,,,,,,,823.0140370650006,None,823.0140370650006,None,right,1,0.9245501370023703,823.0140370650006,None,823.9633424310014,None,,,,,,,,,,,,,,,,,,,,,,,,,,,,,,,,,,1,001,2021_Feb_23_1602,cal_abstract,2020.2.10,59.93744927699402,
,,,,Fix2,stimuli/Healthy/33.jpg,left,,,,,,,,,,,,0,85,85,85,,,,,,,,,,,,,,,,,,,,,,,,,,,,,,,,,,,,,,,,1,,,,,,,,,,,,,,,,,824.7312669070016,None,824.7312669070016,None,left,1,0.650182354998833,824.7312669070016,None,825.4145214400014,None,,,,,,,,,,,,,,,,,,,,,,,,,,,,,,,,,,1,001,2021_Feb_23_1602,cal_abstract,2020.2.10,59.93744927699402,
,,,,Fix1,stimuli/Old/48.jpg,right,,,,,,,,,,,,0,86,86,86,,,,,,,,,,,,,,,,,,,,,,,,,,,,,,,,,,,,,,,,1,,,,,,,,,,,,,,,,,826.1813548499995,None,826.1813548499995,None,right,1,0.610211335002532,826.1813548499995,None,826.814474797,None,,,,,,,,,,,,,,,,,,,,,,,,,,,,,,,,,,1,001,2021_Feb_23_1602,cal_abstract,2020.2.10,59.93744927699402,
,,,,Fix1,stimuli/Old/39.jpg,right,,,,,,,,,,,,0,87,87,87,,,,,,,,,,,,,,,,,,,,,,,,,,,,,,,,,,,,,,,,1,,,,,,,,,,,,,,,,,827.5816153570013,None,827.5816153570013,None,right,1,0.9948383869996178,827.5816153570013,None,828.5980323770018,None,,,,,,,,,,,,,,,,,,,,,,,,,,,,,,,,,,1,001,2021_Feb_23_1602,cal_abstract,2020.2.10,59.93744927699402,
,,,,Fix1,stimuli/Old/18.jpg,right,,,,,,,,,,,,0,88,88,88,,,,,,,,,,,,,,,,,,,,,,,,,,,,,,,,,,,,,,,,1,,,,,,,,,,,,,,,,,829.3650515450026,None,829.3650515450026,None,right,1,0.7142426400023396,829.3650515450026,None,830.0981430499996,None,,,,,,,,,,,,,,,,,,,,,,,,,,,,,,,,,,1,001,2021_Feb_23_1602,cal_abstract,2020.2.10,59.93744927699402,
,,,,Fix1,stimuli/Old/13.jpg,right,,,,,,,,,,,,0,89,89,89,,,,,,,,,,,,,,,,,,,,,,,,,,,,,,,,,,,,,,,,1,,,,,,,,,,,,,,,,,830.8645749900024,None,830.8645749900024,None,right,1,0.5936689469999692,830.8645749900024,None,831.4816380170014,None,,,,,,,,,,,,,,,,,,,,,,,,,,,,,,,,,,1,001,2021_Feb_23_1602,cal_abstract,2020.2.10,59.93744927699402,
,,,,Fix2,stimuli/Healthy/57.jpg,left,,,,,,,,,,,,0,90,90,90,,,,,,,,,,,,,,,,,,,,,,,,,,,,,,,,,,,,,,,,1,,,,,,,,,,,,,,,,,832.2483799800029,None,832.2483799800029,None,left,1,0.5998082969999814,832.2483799800029,None,832.863840725,None,,,,,,,,,,,,,,,,,,,,,,,,,,,,,,,,,,1,001,2021_Feb_23_1602,cal_abstract,2020.2.10,59.93744927699402,
,,,,Fix2,stimuli/Healthy/19.jpg,left,,,,,,,,,,,,0,91,91,91,,,,,,,,,,,,,,,,,,,,,,,,,,,,,,,,,,,,,,,,1,,,,,,,,,,,,,,,,,833.6319486850007,None,833.6319486850007,None,left,1,0.5240953100001207,833.6319486850007,None,834.1821486150002,None,,,,,,,,,,,,,,,,,,,,,,,,,,,,,,,,,,1,001,2021_Feb_23_1602,cal_abstract,2020.2.10,59.93744927699402,
,,,,Fix2,stimuli/Healthy/21.jpg,left,,,,,,,,,,,,0,92,92,92,,,,,,,,,,,,,,,,,,,,,,,,,,,,,,,,,,,,,,,,1,,,,,,,,,,,,,,,,,834.948514265001,None,834.948514265001,None,left,1,0.6002924749991507,834.948514265001,None,835.582101627002,None,,,,,,,,,,,,,,,,,,,,,,,,,,,,,,,,,,1,001,2021_Feb_23_1602,cal_abstract,2020.2.10,59.93744927699402,
,,,,Fix2,stimuli/Healthy/0.jpg,left,,,,,,,,,,,,0,93,93,93,,,,,,,,,,,,,,,,,,,,,,,,,,,,,,,,,,,,,,,,1,,,,,,,,,,,,,,,,,836.348770482,None,836.348770482,None,left,1,1.1485482919997594,836.348770482,None,837.5154478250006,None,,,,,,,,,,,,,,,,,,,,,,,,,,,,,,,,,,1,001,2021_Feb_23_1602,cal_abstract,2020.2.10,59.93744927699402,
,,,,Fix1,stimuli/Old/35.jpg,right,,,,,,,,,,,,0,94,94,94,,,,,,,,,,,,,,,,,,,,,,,,,,,,,,,,,,,,,,,,1,,,,,,,,,,,,,,,,,838.2824922670006,None,838.2824922670006,None,right,1,1.013279192000482,838.2824922670006,None,839.3158104600006,None,,,,,,,,,,,,,,,,,,,,,,,,,,,,,,,,,,1,001,2021_Feb_23_1602,cal_abstract,2020.2.10,59.93744927699402,
,,,,Fix2,stimuli/Healthy/56.jpg,left,,,,,,,,,,,,0,95,95,95,,,,,,,,,,,,,,,,,,,,,,,,,,,,,,,,,,,,,,,,1,,,,,,,,,,,,,,,,,840.0824001620022,None,840.0824001620022,None,left,1,1.8911688049993245,840.0824001620022,None,841.99900041,None,,,,,,,,,,,,,,,,,,,,,,,,,,,,,,,,,,1,001,2021_Feb_23_1602,cal_abstract,2020.2.10,59.93744927699402,
,,,,Cond,stimuli/Wealth/35.jpg,right,,,,,,,,,,,,0,96,96,96,,,,,,,,,,,,,,,,,,,,,,,,,,,,,,,,,,,,,,,,1,,,,,,,,,,,,,,,,,842.7655788270022,None,842.7655788270022,None,right,1,1.0988795749981364,842.7655788270022,None,843.8824673400013,None,,,,,,,,,,,,,,,,,,,,,,,,,,,,,,,,,,1,001,2021_Feb_23_1602,cal_abstract,2020.2.10,59.93744927699402,
,,,,Fix1,stimuli/Old/23.jpg,right,,,,,,,,,,,,0,97,97,97,,,,,,,,,,,,,,,,,,,,,,,,,,,,,,,,,,,,,,,,1,,,,,,,,,,,,,,,,,844.6493173449999,None,844.6493173449999,None,right,1,0.8950353449981776,844.6493173449999,None,845.5659980870005,None,,,,,,,,,,,,,,,,,,,,,,,,,,,,,,,,,,1,001,2021_Feb_23_1602,cal_abstract,2020.2.10,59.93744927699402,
,,,,Cond,stimuli/Wealth/42.jpg,left,,,,,,,,,,,,0,98,98,98,,,,,,,,,,,,,,,,,,,,,,,,,,,,,,,,,,,,,,,,1,,,,,,,,,,,,,,,,,846.3327551570001,None,846.3327551570001,None,left,1,1.0934665819986549,846.3327551570001,None,847.4495066220006,None,,,,,,,,,,,,,,,,,,,,,,,,,,,,,,,,,,1,001,2021_Feb_23_1602,cal_abstract,2020.2.10,59.93744927699402,
,,,,Fix2,stimuli/Healthy/24.jpg,left,,,,,,,,,,,,0,99,99,99,,,,,,,,,,,,,,,,,,,,,,,,,,,,,,,,,,,,,,,,1,,,,,,,,,,,,,,,,,848.2159245020011,None,848.2159245020011,None,left,1,1.0850292450013512,848.2159245020011,None,849.3328965319997,None,,,,,,,,,,,,,,,,,,,,,,,,,,,,,,,,,,1,001,2021_Feb_23_1602,cal_abstract,2020.2.10,59.93744927699402,
,,,,Cond,stimuli/Wealth/54.jpg,right,,,,,,,,,,,,0,100,100,100,,,,,,,,,,,,,,,,,,,,,,,,,,,,,,,,,,,,,,,,1,,,,,,,,,,,,,,,,,850.0997933399995,None,850.0997933399995,None,right,1,1.3871992899985344,850.0997933399995,None,851.5161508500023,None,,,,,,,,,,,,,,,,,,,,,,,,,,,,,,,,,,1,001,2021_Feb_23_1602,cal_abstract,2020.2.10,59.93744927699402,
,,,,Cond,stimuli/Wealth/4.jpg,left,,,,,,,,,,,,0,101,101,101,,,,,,,,,,,,,,,,,,,,,,,,,,,,,,,,,,,,,,,,1,,,,,,,,,,,,,,,,,852.2832868799997,None,852.2832868799997,None,left,1,3.0034690169995883,852.2832868799997,None,855.3166488800016,None,,,,,,,,,,,,,,,,,,,,,,,,,,,,,,,,,,1,001,2021_Feb_23_1602,cal_abstract,2020.2.10,59.93744927699402,
,,,,Fix2,stimuli/Healthy/48.jpg,left,,,,,,,,,,,,0,102,102,102,,,,,,,,,,,,,,,,,,,,,,,,,,,,,,,,,,,,,,,,1,,,,,,,,,,,,,,,,,856.0834064370028,None,856.0834064370028,None,left,1,1.3675954899990757,856.0834064370028,None,857.4833184320014,None,,,,,,,,,,,,,,,,,,,,,,,,,,,,,,,,,,1,001,2021_Feb_23_1602,cal_abstract,2020.2.10,59.93744927699402,
,,,,Fix2,stimuli/Healthy/15.jpg,left,,,,,,,,,,,,0,103,103,103,,,,,,,,,,,,,,,,,,,,,,,,,,,,,,,,,,,,,,,,1,,,,,,,,,,,,,,,,,858.2502608270006,None,858.2502608270006,None,left,1,0.8556546519976109,858.2502608270006,None,859.1336295220026,None,,,,,,,,,,,,,,,,,,,,,,,,,,,,,,,,,,1,001,2021_Feb_23_1602,cal_abstract,2020.2.10,59.93744927699402,
,,,,Cond,stimuli/Wealth/38.jpg,right,,,,,,,,,,,,0,104,104,104,,,,,,,,,,,,,,,,,,,,,,,,,,,,,,,,,,,,,,,,1,,,,,,,,,,,,,,,,,859.8999952400009,None,859.8999952400009,None,right,1,1.614156505002029,859.8999952400009,None,861.5326712500027,None,,,,,,,,,,,,,,,,,,,,,,,,,,,,,,,,,,1,001,2021_Feb_23_1602,cal_abstract,2020.2.10,59.93744927699402,
,,,,Cond,stimuli/Wealth/21.jpg,left,,,,,,,,,,,,0,105,105,105,,,,,,,,,,,,,,,,,,,,,,,,,,,,,,,,,,,,,,,,1,,,,,,,,,,,,,,,,,862.3005509100003,None,862.3005509100003,None,left,1,1.0802570499981812,862.3005509100003,None,863.4005907120008,None,,,,,,,,,,,,,,,,,,,,,,,,,,,,,,,,,,1,001,2021_Feb_23_1602,cal_abstract,2020.2.10,59.93744927699402,
,,,,Fix2,stimuli/Healthy/36.jpg,left,,,,,,,,,,,,0,106,106,106,,,,,,,,,,,,,,,,,,,,,,,,,,,,,,,,,,,,,,,,1,,,,,,,,,,,,,,,,,864.1673299249996,None,864.1673299249996,None,left,1,4.462438375001511,864.1673299249996,None,868.6505787150018,None,,,,,,,,,,,,,,,,,,,,,,,,,,,,,,,,,,1,001,2021_Feb_23_1602,cal_abstract,2020.2.10,59.93744927699402,
,,,,Fix1,stimuli/Old/12.jpg,right,,,,,,,,,,,,0,107,107,107,,,,,,,,,,,,,,,,,,,,,,,,,,,,,,,,,,,,,,,,1,,,,,,,,,,,,,,,,,869.4179112170023,None,869.4179112170023,None,right,1,3.507349650000833,869.4179112170023,None,872.9514660150016,None,,,,,,,,,,,,,,,,,,,,,,,,,,,,,,,,,,1,001,2021_Feb_23_1602,cal_abstract,2020.2.10,59.93744927699402,
,,,,Fix2,stimuli/Healthy/69.jpg,left,,,,,,,,,,,,0,108,108,108,,,,,,,,,,,,,,,,,,,,,,,,,,,,,,,,,,,,,,,,1,,,,,,,,,,,,,,,,,873.7181695550025,None,873.7181695550025,None,left,1,0.9688779500029341,873.7181695550025,None,874.7179408850025,None,,,,,,,,,,,,,,,,,,,,,,,,,,,,,,,,,,1,001,2021_Feb_23_1602,cal_abstract,2020.2.10,59.93744927699402,
,,,,Fix2,stimuli/Healthy/30.jpg,left,,,,,,,,,,,,0,109,109,109,,,,,,,,,,,,,,,,,,,,,,,,,,,,,,,,,,,,,,,,1,,,,,,,,,,,,,,,,,875.4841895220015,None,875.4841895220015,None,left,1,0.5649416300002486,875.4841895220015,None,876.0677950470017,None,,,,,,,,,,,,,,,,,,,,,,,,,,,,,,,,,,1,001,2021_Feb_23_1602,cal_abstract,2020.2.10,59.93744927699402,
,,,,Cond,stimuli/Wealth/23.jpg,right,,,,,,,,,,,,0,110,110,110,,,,,,,,,,,,,,,,,,,,,,,,,,,,,,,,,,,,,,,,0,,,,,,,,,,,,,,,,,876.8348131050006,None,876.8348131050006,None,left,0,1.5660495900010574,876.8348131050006,None,878.4178872299999,None,,,,,,,,,,,,,,,,,,,,,,,,,,,,,,,,,,1,001,2021_Feb_23_1602,cal_abstract,2020.2.10,59.93744927699402,
,,,,Fix1,stimuli/Old/9.jpg,right,,,,,,,,,,,,0,111,111,111,,,,,,,,,,,,,,,,,,,,,,,,,,,,,,,,,,,,,,,,1,,,,,,,,,,,,,,,,,879.1851204420018,None,879.1851204420018,None,right,1,2.378499225000269,879.1851204420018,None,881.585081477002,None,,,,,,,,,,,,,,,,,,,,,,,,,,,,,,,,,,1,001,2021_Feb_23_1602,cal_abstract,2020.2.10,59.93744927699402,
,,,,Fix1,stimuli/Old/50.jpg,right,,,,,,,,,,,,0,112,112,112,,,,,,,,,,,,,,,,,,,,,,,,,,,,,,,,,,,,,,,,1,,,,,,,,,,,,,,,,,882.3526364630015,None,882.3526364630015,None,right,1,1.00287907999882,882.3526364630015,None,883.384937517003,None,,,,,,,,,,,,,,,,,,,,,,,,,,,,,,,,,,1,001,2021_Feb_23_1602,cal_abstract,2020.2.10,59.93744927699402,
,,,,Fix1,stimuli/Old/5.jpg,right,,,,,,,,,,,,0,113,113,113,,,,,,,,,,,,,,,,,,,,,,,,,,,,,,,,,,,,,,,,1,,,,,,,,,,,,,,,,,884.1518336320005,None,884.1518336320005,None,right,1,1.0843883819979965,884.1518336320005,None,885.2685537319994,None,,,,,,,,,,,,,,,,,,,,,,,,,,,,,,,,,,1,001,2021_Feb_23_1602,cal_abstract,2020.2.10,59.93744927699402,
,,,,Fix1,stimuli/Old/57.jpg,right,,,,,,,,,,,,0,114,114,114,,,,,,,,,,,,,,,,,,,,,,,,,,,,,,,,,,,,,,,,1,,,,,,,,,,,,,,,,,886.0355439920022,None,886.0355439920022,None,right,1,1.7526514369965298,886.0355439920022,None,887.818857440001,None,,,,,,,,,,,,,,,,,,,,,,,,,,,,,,,,,,1,001,2021_Feb_23_1602,cal_abstract,2020.2.10,59.93744927699402,
,,,,Cond,stimuli/Wealth/15.jpg,left,,,,,,,,,,,,0,115,115,115,,,,,,,,,,,,,,,,,,,,,,,,,,,,,,,,,,,,,,,,0,,,,,,,,,,,,,,,,,888.5857197149999,None,888.5857197149999,None,right,0,27.957324560000416,888.5857197149999,None,916.570749540002,None,,,,,,,,,,,,,,,,,,,,,,,,,,,,,,,,,,1,001,2021_Feb_23_1602,cal_abstract,2020.2.10,59.93744927699402,
,,,,Fix1,stimuli/Old/26.jpg,right,,,,,,,,,,,,0,116,116,116,,,,,,,,,,,,,,,,,,,,,,,,,,,,,,,,,,,,,,,,1,,,,,,,,,,,,,,,,,917.3375486250006,None,917.3375486250006,None,right,1,1.024633167002321,917.3375486250006,None,918.3874193250012,None,,,,,,,,,,,,,,,,,,,,,,,,,,,,,,,,,,1,001,2021_Feb_23_1602,cal_abstract,2020.2.10,59.93744927699402,
,,,,Cond,stimuli/Wealth/47.jpg,left,,,,,,,,,,,,0,117,117,117,,,,,,,,,,,,,,,,,,,,,,,,,,,,,,,,,,,,,,,,1,,,,,,,,,,,,,,,,,919.154441775001,None,919.154441775001,None,left,1,1.0225050049994024,919.154441775001,None,920.2045219400025,None,,,,,,,,,,,,,,,,,,,,,,,,,,,,,,,,,,1,001,2021_Feb_23_1602,cal_abstract,2020.2.10,59.93744927699402,
,,,,Cond,stimuli/Wealth/30.jpg,right,,,,,,,,,,,,0,118,118,118,,,,,,,,,,,,,,,,,,,,,,,,,,,,,,,,,,,,,,,,1,,,,,,,,,,,,,,,,,920.9710177720008,None,920.9710177720008,None,right,1,0.09100047999891103,920.9710177720008,None,921.0878256550022,None,,,,,,,,,,,,,,,,,,,,,,,,,,,,,,,,,,1,001,2021_Feb_23_1602,cal_abstract,2020.2.10,59.93744927699402,
,,,,Cond,stimuli/Wealth/36.jpg,left,,,,,,,,,,,,0,119,119,119,,,,,,,,,,,,,,,,,,,,,,,,,,,,,,,,,,,,,,,,1,,,,,,,,,,,,,,,,,921.8546651800025,None,921.8546651800025,None,left,1,1.1022292519992334,921.8546651800025,None,922.9879204450008,None,,,,,,,,,,,,,,,,,,,,,,,,,,,,,,,,,,1,001,2021_Feb_23_1602,cal_abstract,2020.2.10,59.93744927699402,
,,,,Fix1,stimuli/Old/11.jpg,right,,,,,,,,,,,,0,120,120,120,,,,,,,,,,,,,,,,,,,,,,,,,,,,,,,,,,,,,,,,1,,,,,,,,,,,,,,,,,923.7548039249996,None,923.7548039249996,None,right,1,0.9480256879978697,923.7548039249996,None,924.7212190520004,None,,,,,,,,,,,,,,,,,,,,,,,,,,,,,,,,,,1,001,2021_Feb_23_1602,cal_abstract,2020.2.10,59.93744927699402,
,,,,Cond,stimuli/Wealth/34.jpg,left,,,,,,,,,,,,0,121,121,121,,,,,,,,,,,,,,,,,,,,,,,,,,,,,,,,,,,,,,,,1,,,,,,,,,,,,,,,,,925.4884366719998,None,925.4884366719998,None,left,1,0.8262437150006008,925.4884366719998,None,926.3382033520029,None,,,,,,,,,,,,,,,,,,,,,,,,,,,,,,,,,,1,001,2021_Feb_23_1602,cal_abstract,2020.2.10,59.93744927699402,
,,,,Fix2,stimuli/Healthy/46.jpg,left,,,,,,,,,,,,0,122,122,122,,,,,,,,,,,,,,,,,,,,,,,,,,,,,,,,,,,,,,,,1,,,,,,,,,,,,,,,,,927.1048898670015,None,927.1048898670015,None,left,1,0.9136688150028931,927.1048898670015,None,928.0383578149995,None,,,,,,,,,,,,,,,,,,,,,,,,,,,,,,,,,,1,001,2021_Feb_23_1602,cal_abstract,2020.2.10,59.93744927699402,
,,,,Fix1,stimuli/Old/32.jpg,right,,,,,,,,,,,,0,123,123,123,,,,,,,,,,,,,,,,,,,,,,,,,,,,,,,,,,,,,,,,1,,,,,,,,,,,,,,,,,928.8050171400027,None,928.8050171400027,None,right,1,0.7462917249977181,928.8050171400027,None,929.5717099070025,None,,,,,,,,,,,,,,,,,,,,,,,,,,,,,,,,,,1,001,2021_Feb_23_1602,cal_abstract,2020.2.10,59.93744927699402,
,,,,Cond,stimuli/Wealth/48.jpg,left,,,,,,,,,,,,0,124,124,124,,,,,,,,,,,,,,,,,,,,,,,,,,,,,,,,,,,,,,,,1,,,,,,,,,,,,,,,,,930.3385674199999,None,930.3385674199999,None,left,1,0.6548238379982649,930.3385674199999,None,931.0213376150023,None,,,,,,,,,,,,,,,,,,,,,,,,,,,,,,,,,,1,001,2021_Feb_23_1602,cal_abstract,2020.2.10,59.93744927699402,
,,,,Fix1,stimuli/Old/27.jpg,right,,,,,,,,,,,,0,125,125,125,,,,,,,,,,,,,,,,,,,,,,,,,,,,,,,,,,,,,,,,1,,,,,,,,,,,,,,,,,931.7888953500005,None,931.7888953500005,None,right,1,0.8614040770007705,931.7888953500005,None,932.6719325220001,None,,,,,,,,,,,,,,,,,,,,,,,,,,,,,,,,,,1,001,2021_Feb_23_1602,cal_abstract,2020.2.10,59.93744927699402,
,,,,Cond,stimuli/Wealth/29.jpg,left,,,,,,,,,,,,0,126,126,126,,,,,,,,,,,,,,,,,,,,,,,,,,,,,,,,,,,,,,,,1,,,,,,,,,,,,,,,,,933.4387832419998,None,933.4387832419998,None,left,1,1.0563949679999496,933.4387832419998,None,934.5220765949998,None,,,,,,,,,,,,,,,,,,,,,,,,,,,,,,,,,,1,001,2021_Feb_23_1602,cal_abstract,2020.2.10,59.93744927699402,
,,,,Fix1,stimuli/Old/42.jpg,right,,,,,,,,,,,,0,127,127,127,,,,,,,,,,,,,,,,,,,,,,,,,,,,,,,,,,,,,,,,1,,,,,,,,,,,,,,,,,935.288885830003,None,935.288885830003,None,right,1,0.9060493299984955,935.288885830003,None,936.2221667920021,None,,,,,,,,,,,,,,,,,,,,,,,,,,,,,,,,,,1,001,2021_Feb_23_1602,cal_abstract,2020.2.10,59.93744927699402,
,,,,Fix1,stimuli/Old/4.jpg,right,,,,,,,,,,,,0,128,128,128,,,,,,,,,,,,,,,,,,,,,,,,,,,,,,,,,,,,,,,,1,,,,,,,,,,,,,,,,,936.9889019719994,None,936.9889019719994,None,right,1,0.7863085530007083,936.9889019719994,None,937.8056507200017,None,,,,,,,,,,,,,,,,,,,,,,,,,,,,,,,,,,1,001,2021_Feb_23_1602,cal_abstract,2020.2.10,59.93744927699402,
,,,,Fix2,stimuli/Healthy/31.jpg,left,,,,,,,,,,,,0,129,129,129,,,,,,,,,,,,,,,,,,,,,,,,,,,,,,,,,,,,,,,,1,,,,,,,,,,,,,,,,,938.5724607520024,None,938.5724607520024,None,left,1,2.0303657170006773,938.5724607520024,None,940.6226039470021,None,,,,,,,,,,,,,,,,,,,,,,,,,,,,,,,,,,1,001,2021_Feb_23_1602,cal_abstract,2020.2.10,59.93744927699402,
,,,,Cond,stimuli/Wealth/18.jpg,right,,,,,,,,,,,,0,130,130,130,,,,,,,,,,,,,,,,,,,,,,,,,,,,,,,,,,,,,,,,1,,,,,,,,,,,,,,,,,941.3894272300022,None,941.3894272300022,None,right,1,0.7703184650017647,941.3894272300022,None,942.189293165,None,,,,,,,,,,,,,,,,,,,,,,,,,,,,,,,,,,1,001,2021_Feb_23_1602,cal_abstract,2020.2.10,59.93744927699402,
,,,,Fix2,stimuli/Healthy/52.jpg,left,,,,,,,,,,,,0,131,131,131,,,,,,,,,,,,,,,,,,,,,,,,,,,,,,,,,,,,,,,,1,,,,,,,,,,,,,,,,,942.956282520001,None,942.956282520001,None,left,1,1.1832321970032353,942.956282520001,None,944.1727007270019,None,,,,,,,,,,,,,,,,,,,,,,,,,,,,,,,,,,1,001,2021_Feb_23_1602,cal_abstract,2020.2.10,59.93744927699402,
,,,,Fix1,stimuli/Old/52.jpg,right,,,,,,,,,,,,0,132,132,132,,,,,,,,,,,,,,,,,,,,,,,,,,,,,,,,,,,,,,,,1,,,,,,,,,,,,,,,,,944.9397378800022,None,944.9397378800022,None,right,1,0.7176425799989374,944.9397378800022,None,945.6896618650026,None,,,,,,,,,,,,,,,,,,,,,,,,,,,,,,,,,,1,001,2021_Feb_23_1602,cal_abstract,2020.2.10,59.93744927699402,
