Text,Block1Type,Block1Stim,Block1Corr,Block2Type,Block2Stim,Block2Corr,Block3Type,Block3Stim,Block3Corr,Instruction_loop.thisRepN,Instruction_loop.thisTrialN,Instruction_loop.thisN,Instruction_loop.thisIndex,Block1_loop.thisRepN,Block1_loop.thisTrialN,Block1_loop.thisN,Block1_loop.thisIndex,Block2_loop.thisRepN,Block2_loop.thisTrialN,Block2_loop.thisN,Block2_loop.thisIndex,Block3_loop.thisRepN,Block3_loop.thisTrialN,Block3_loop.thisN,Block3_loop.thisIndex,welcome_text1.started,welcome_text1.stopped,welcome_text2.started,welcome_text2.stopped,welcome_text3.started,welcome_text3.stopped,welcome_resp.keys,welcome_resp.rt,welcome_resp.started,welcome_resp.stopped,instruct_text1.started,instruct_text1.stopped,instruct_text2.started,instruct_text2.stopped,instruct_resp1.keys,instruct_resp1.rt,instruct_resp1.started,instruct_resp1.stopped,start_text1.started,start_text1.stopped,start_text2.started,start_text2.stopped,start_resp1.keys,start_resp1.rt,start_resp1.started,start_resp1.stopped,image1.started,image1.stopped,text1.started,text1.stopped,key_resp1.keys,key_resp1.corr,key_resp1.rt,key_resp1.started,key_resp1.stopped,trialCorrect,feedback_text1.started,feedback_text1.stopped,break_text1.started,break_text1.stopped,break_resp1.keys,break_resp1.rt,break_resp1.started,break_resp1.stopped,start_text3.started,start_text3.stopped,start_text4.started,start_text4.stopped,start_resp2.keys,start_resp2.rt,start_resp2.started,start_resp2.stopped,image2.started,image2.stopped,text2.started,text2.stopped,key_resp2.keys,key_resp2.corr,key_resp2.rt,key_resp2.started,key_resp2.stopped,feedback_text2.started,feedback_text2.stopped,break_text2.started,break_text2.stopped,break_resp2.keys,break_resp2.rt,break_resp2.started,break_resp2.stopped,start_text5.started,start_text5.stopped,start_text6.started,start_text6.stopped,start_resp3.keys,start_resp3.rt,start_resp3.started,start_resp3.stopped,image3.started,image3.stopped,text3.started,text3.stopped,key_resp3.keys,key_resp3.corr,key_resp3.rt,key_resp3.started,key_resp3.stopped,feedback_text3.started,feedback_text3.stopped,end_text1.started,end_text1.stopped,end_text2.started,end_text2.stopped,end_resp.keys,end_resp.rt,end_resp.started,end_resp.stopped,participant,session,date,expName,psychopyVersion,frameRate,
,,,,,,,,,,,,,,,,,,,,,,,,,,137.7844832999981,None,137.7844832999981,None,137.7844832999981,None,return,4.412058051999338,137.7844832999981,None,,,,,,,,,,,,,,,,,,,,,,,,,,,,,,,,,,,,,,,,,,,,,,,,,,,,,,,,,,,,,,,,,,,,,,,,,,,,,,,,,,,,,,,2,001,2021_Feb_23_1855,cal_abstract,2020.2.10,60.26167862538071,
"You will be presented with a series of images. It is your job to learn, through trial and error, whether the “Left” or “Right” arrow key should be pressed for each image.",,,,,,,,,,0,0,0,0,,,,,,,,,,,,,,,,,,,,,,,142.25139023999873,None,142.25139023999873,None,return,5.2104305579996435,142.25139023999873,None,,,,,,,,,,,,,,,,,,,,,,,,,,,,,,,,,,,,,,,,,,,,,,,,,,,,,,,,,,,,,,,,,,,,,,,,,,,,,,,2,001,2021_Feb_23_1855,cal_abstract,2020.2.10,60.26167862538071,
"For some images you should always press “Left”, and for others you should always press “Right” arrow key.",,,,,,,,,,0,1,1,1,,,,,,,,,,,,,,,,,,,,,,,147.50204569799826,None,147.50204569799826,None,return,6.567716754998401,147.50204569799826,None,,,,,,,,,,,,,,,,,,,,,,,,,,,,,,,,,,,,,,,,,,,,,,,,,,,,,,,,,,,,,,,,,,,,,,,,,,,,,,,2,001,2021_Feb_23_1855,cal_abstract,2020.2.10,60.26167862538071,
"Some images are special: the correct response is the opposite of the preceding correct response. That is, if the previous correct answer was “Left” then the correct response would now be “Right”.",,,,,,,,,,0,2,2,2,,,,,,,,,,,,,,,,,,,,,,,154.11900115499884,None,154.11900115499884,None,return,11.373214754999935,154.11900115499884,None,,,,,,,,,,,,,,,,,,,,,,,,,,,,,,,,,,,,,,,,,,,,,,,,,,,,,,,,,,,,,,,,,,,,,,,,,,,,,,,2,001,2021_Feb_23_1855,cal_abstract,2020.2.10,60.26167862538071,
"After each response, you will be told whether you got the item correct or incorrect.",,,,,,,,,,0,3,3,3,,,,,,,,,,,,,,,,,,,,,,,165.53648974799944,None,165.53648974799944,None,return,3.8986859750002623,165.53648974799944,None,,,,,,,,,,,,,,,,,,,,,,,,,,,,,,,,,,,,,,,,,,,,,,,,,,,,,,,,,,,,,,,,,,,,,,,,,,,,,,,2,001,2021_Feb_23_1855,cal_abstract,2020.2.10,60.26167862538071,
"You can take as long as you like on each image, but the task will not continue until you press the “Left” or “Right” arrow key.",,,,,,,,,,0,4,4,4,,,,,,,,,,,,,,,,,,,,,,,169.470315792998,None,169.470315792998,None,return,11.000766843000747,169.470315792998,None,,,,,,,,,,,,,,,,,,,,,,,,,,,,,,,,,,,,,,,,,,,,,,,,,,,,,,,,,,,,,,,,,,,,,,,,,,,,,,,2,001,2021_Feb_23_1855,cal_abstract,2020.2.10,60.26167862538071,
"The experiment will have three blocks, each block will take approximately 10 minutes to complete.",,,,,,,,,,0,5,5,5,,,,,,,,,,,,,,,,,,,,,,,180.52113842799736,None,180.52113842799736,None,return,5.8454477099985525,180.52113842799736,None,,,,,,,,,,,,,,,,,,,,,,,,,,,,,,,,,,,,,,,,,,,,,,,,,,,,,,,,,,,,,,,,,,,,,,,,,,,,,,,2,001,2021_Feb_23_1855,cal_abstract,2020.2.10,60.26167862538071,
,,,,,,,,,,,,,,,,,,,,,,,,,,,,,,,,,,,,,,,,,,,,186.38777973999822,None,186.38777973999822,None,s,2.9252204870026617,186.38777973999822,None,,,,,,,,,,,,,,,,,,,,,,,,,,,,,,,,,,,,,,,,,,,,,,,,,,,,,,,,,,,,,,,,,,,,,,,2,001,2021_Feb_23_1855,cal_abstract,2020.2.10,60.26167862538071,
,Fix2,stimuli/Dangerous/15.jpg,right,,,,,,,,,,,0,0,0,0,,,,,,,,,,,,,,,,,,,,,,,,,,,,,,,,,,,189.40464111999972,None,189.40464111999972,None,left,0,7.130407192998973,189.40464111999972,None,0,196.55527206499755,None,,,,,,,,,,,,,,,,,,,,,,,,,,,,,,,,,,,,,,,,,,,,,,,,,,,,,,,,,,,2,001,2021_Feb_23_1855,cal_abstract,2020.2.10,60.26167862538071,
,Fix1,stimuli/School/26.jpg,left,,,,,,,,,,,0,1,1,1,,,,,,,,,,,,,,,,,,,,,,,,,,,,,,,,,,,197.32228761499937,None,197.32228761499937,None,right,0,21.563683398002468,197.32228761499937,None,0,218.90697518999878,None,,,,,,,,,,,,,,,,,,,,,,,,,,,,,,,,,,,,,,,,,,,,,,,,,,,,,,,,,,,2,001,2021_Feb_23_1855,cal_abstract,2020.2.10,60.26167862538071,
,Cond,stimuli/Small/10.jpg,right,,,,,,,,,,,0,2,2,2,,,,,,,,,,,,,,,,,,,,,,,,,,,,,,,,,,,219.6736104729971,None,219.6736104729971,None,left,0,7.83397734999744,219.6736104729971,None,0,227.54090858999916,None,,,,,,,,,,,,,,,,,,,,,,,,,,,,,,,,,,,,,,,,,,,,,,,,,,,,,,,,,,,2,001,2021_Feb_23_1855,cal_abstract,2020.2.10,60.26167862538071,
,Fix1,stimuli/School/25.jpg,left,,,,,,,,,,,0,3,3,3,,,,,,,,,,,,,,,,,,,,,,,,,,,,,,,,,,,228.30774393299725,None,228.30774393299725,None,right,0,27.691133625001385,228.30774393299725,None,0,256.02612214299734,None,,,,,,,,,,,,,,,,,,,,,,,,,,,,,,,,,,,,,,,,,,,,,,,,,,,,,,,,,,,2,001,2021_Feb_23_1855,cal_abstract,2020.2.10,60.26167862538071,
,Fix2,stimuli/Dangerous/30.jpg,right,,,,,,,,,,,0,4,4,4,,,,,,,,,,,,,,,,,,,,,,,,,,,,,,,,,,,256.79263401999924,None,256.79263401999924,None,right,1,2.2744703969983675,256.79263401999924,None,1,259.09354166799676,None,,,,,,,,,,,,,,,,,,,,,,,,,,,,,,,,,,,,,,,,,,,,,,,,,,,,,,,,,,,2,001,2021_Feb_23_1855,cal_abstract,2020.2.10,60.26167862538071,
,Fix2,stimuli/Dangerous/42.jpg,right,,,,,,,,,,,0,5,5,5,,,,,,,,,,,,,,,,,,,,,,,,,,,,,,,,,,,259.8597995249984,None,259.8597995249984,None,left,0,18.240325596998446,259.8597995249984,None,0,278.1278171729973,None,,,,,,,,,,,,,,,,,,,,,,,,,,,,,,,,,,,,,,,,,,,,,,,,,,,,,,,,,,,2,001,2021_Feb_23_1855,cal_abstract,2020.2.10,60.26167862538071,
,Cond,stimuli/Small/4.jpg,left,,,,,,,,,,,0,6,6,6,,,,,,,,,,,,,,,,,,,,,,,,,,,,,,,,,,,278.89443356799893,None,278.89443356799893,None,left,1,11.55086574500092,278.89443356799893,None,1,290.4785893999979,None,,,,,,,,,,,,,,,,,,,,,,,,,,,,,,,,,,,,,,,,,,,,,,,,,,,,,,,,,,,2,001,2021_Feb_23_1855,cal_abstract,2020.2.10,60.26167862538071,
,Fix2,stimuli/Dangerous/44.jpg,right,,,,,,,,,,,0,7,7,7,,,,,,,,,,,,,,,,,,,,,,,,,,,,,,,,,,,291.2454590849993,None,291.2454590849993,None,right,1,5.971478560000833,291.2454590849993,None,1,297.2456684680001,None,,,,,,,,,,,,,,,,,,,,,,,,,,,,,,,,,,,,,,,,,,,,,,,,,,,,,,,,,,,2,001,2021_Feb_23_1855,cal_abstract,2020.2.10,60.26167862538071,
,Cond,stimuli/Small/39.jpg,left,,,,,,,,,,,0,8,8,8,,,,,,,,,,,,,,,,,,,,,,,,,,,,,,,,,,,298.012865769997,None,298.012865769997,None,left,1,10.752773255000648,298.012865769997,None,1,308.7965982679998,None,,,,,,,,,,,,,,,,,,,,,,,,,,,,,,,,,,,,,,,,,,,,,,,,,,,,,,,,,,,2,001,2021_Feb_23_1855,cal_abstract,2020.2.10,60.26167862538071,
,Fix2,stimuli/Dangerous/34.jpg,right,,,,,,,,,,,0,9,9,9,,,,,,,,,,,,,,,,,,,,,,,,,,,,,,,,,,,309.5633135999997,None,309.5633135999997,None,right,1,2.651847623001231,309.5633135999997,None,1,312.2469516129968,None,,,,,,,,,,,,,,,,,,,,,,,,,,,,,,,,,,,,,,,,,,,,,,,,,,,,,,,,,,,2,001,2021_Feb_23_1855,cal_abstract,2020.2.10,60.26167862538071,
,Cond,stimuli/Small/13.jpg,left,,,,,,,,,,,0,10,10,10,,,,,,,,,,,,,,,,,,,,,,,,,,,,,,,,,,,313.01359716299703,None,313.01359716299703,None,left,1,2.021583092002402,313.01359716299703,None,1,315.06370196999706,None,,,,,,,,,,,,,,,,,,,,,,,,,,,,,,,,,,,,,,,,,,,,,,,,,,,,,,,,,,,2,001,2021_Feb_23_1855,cal_abstract,2020.2.10,60.26167862538071,
,Fix2,stimuli/Dangerous/6.jpg,right,,,,,,,,,,,0,11,11,11,,,,,,,,,,,,,,,,,,,,,,,,,,,,,,,,,,,315.8298610499987,None,315.8298610499987,None,right,1,0.4372219050019339,315.8298610499987,None,1,316.29693335799675,None,,,,,,,,,,,,,,,,,,,,,,,,,,,,,,,,,,,,,,,,,,,,,,,,,,,,,,,,,,,2,001,2021_Feb_23_1855,cal_abstract,2020.2.10,60.26167862538071,
,Fix2,stimuli/Dangerous/24.jpg,right,,,,,,,,,,,0,12,12,12,,,,,,,,,,,,,,,,,,,,,,,,,,,,,,,,,,,317.0638867079979,None,317.0638867079979,None,left,0,0.37017749799997546,317.0638867079979,None,0,317.4633778749994,None,,,,,,,,,,,,,,,,,,,,,,,,,,,,,,,,,,,,,,,,,,,,,,,,,,,,,,,,,,,2,001,2021_Feb_23_1855,cal_abstract,2020.2.10,60.26167862538071,
,Cond,stimuli/Small/20.jpg,left,,,,,,,,,,,0,13,13,13,,,,,,,,,,,,,,,,,,,,,,,,,,,,,,,,,,,318.2306059879993,None,318.2306059879993,None,left,1,6.891103919999296,318.2306059879993,None,1,325.14767845499955,None,,,,,,,,,,,,,,,,,,,,,,,,,,,,,,,,,,,,,,,,,,,,,,,,,,,,,,,,,,,2,001,2021_Feb_23_1855,cal_abstract,2020.2.10,60.26167862538071,
,Fix2,stimuli/Dangerous/33.jpg,right,,,,,,,,,,,0,14,14,14,,,,,,,,,,,,,,,,,,,,,,,,,,,,,,,,,,,325.9144861399982,None,325.9144861399982,None,right,1,0.6761414850006986,325.9144861399982,None,1,326.61407702499855,None,,,,,,,,,,,,,,,,,,,,,,,,,,,,,,,,,,,,,,,,,,,,,,,,,,,,,,,,,,,2,001,2021_Feb_23_1855,cal_abstract,2020.2.10,60.26167862538071,
,Cond,stimuli/Small/2.jpg,left,,,,,,,,,,,0,15,15,15,,,,,,,,,,,,,,,,,,,,,,,,,,,,,,,,,,,327.3813004799995,None,327.3813004799995,None,left,1,2.1492453099999693,327.3813004799995,None,1,329.54807080499813,None,,,,,,,,,,,,,,,,,,,,,,,,,,,,,,,,,,,,,,,,,,,,,,,,,,,,,,,,,,,2,001,2021_Feb_23_1855,cal_abstract,2020.2.10,60.26167862538071,
,Fix2,stimuli/Dangerous/41.jpg,right,,,,,,,,,,,0,16,16,16,,,,,,,,,,,,,,,,,,,,,,,,,,,,,,,,,,,330.3146659979975,None,330.3146659979975,None,right,1,1.1666187629998603,330.3146659979975,None,1,331.49802692499725,None,,,,,,,,,,,,,,,,,,,,,,,,,,,,,,,,,,,,,,,,,,,,,,,,,,,,,,,,,,,2,001,2021_Feb_23_1855,cal_abstract,2020.2.10,60.26167862538071,
,Fix1,stimuli/School/56.jpg,left,,,,,,,,,,,0,17,17,17,,,,,,,,,,,,,,,,,,,,,,,,,,,,,,,,,,,332.26484914499815,None,332.26484914499815,None,left,1,2.3521889980002015,332.26484914499815,None,1,334.64783743299995,None,,,,,,,,,,,,,,,,,,,,,,,,,,,,,,,,,,,,,,,,,,,,,,,,,,,,,,,,,,,2,001,2021_Feb_23_1855,cal_abstract,2020.2.10,60.26167862538071,
,Cond,stimuli/Small/57.jpg,right,,,,,,,,,,,0,18,18,18,,,,,,,,,,,,,,,,,,,,,,,,,,,,,,,,,,,335.41489276799985,None,335.41489276799985,None,left,0,1.9540708800013817,335.41489276799985,None,0,337.3985292449979,None,,,,,,,,,,,,,,,,,,,,,,,,,,,,,,,,,,,,,,,,,,,,,,,,,,,,,,,,,,,2,001,2021_Feb_23_1855,cal_abstract,2020.2.10,60.26167862538071,
,Fix2,stimuli/Dangerous/58.jpg,right,,,,,,,,,,,0,19,19,19,,,,,,,,,,,,,,,,,,,,,,,,,,,,,,,,,,,338.1651921880002,None,338.1651921880002,None,left,0,1.9964489949998097,338.1651921880002,None,0,340.1821504999971,None,,,,,,,,,,,,,,,,,,,,,,,,,,,,,,,,,,,,,,,,,,,,,,,,,,,,,,,,,,,2,001,2021_Feb_23_1855,cal_abstract,2020.2.10,60.26167862538071,
,Cond,stimuli/Small/58.jpg,left,,,,,,,,,,,0,20,20,20,,,,,,,,,,,,,,,,,,,,,,,,,,,,,,,,,,,340.9500197649977,None,340.9500197649977,None,right,0,5.687768217001576,340.9500197649977,None,0,346.6657586199981,None,,,,,,,,,,,,,,,,,,,,,,,,,,,,,,,,,,,,,,,,,,,,,,,,,,,,,,,,,,,2,001,2021_Feb_23_1855,cal_abstract,2020.2.10,60.26167862538071,
,Fix2,stimuli/Dangerous/20.jpg,right,,,,,,,,,,,0,21,21,21,,,,,,,,,,,,,,,,,,,,,,,,,,,,,,,,,,,347.4326027499992,None,347.4326027499992,None,left,0,3.7335337479999,347.4326027499992,None,0,351.1994166149998,None,,,,,,,,,,,,,,,,,,,,,,,,,,,,,,,,,,,,,,,,,,,,,,,,,,,,,,,,,,,2,001,2021_Feb_23_1855,cal_abstract,2020.2.10,60.26167862538071,
,Cond,stimuli/Small/29.jpg,left,,,,,,,,,,,0,22,22,22,,,,,,,,,,,,,,,,,,,,,,,,,,,,,,,,,,,351.9661935599979,None,351.9661935599979,None,left,1,1.5842302279997966,351.9661935599979,None,1,353.5829678549999,None,,,,,,,,,,,,,,,,,,,,,,,,,,,,,,,,,,,,,,,,,,,,,,,,,,,,,,,,,,,2,001,2021_Feb_23_1855,cal_abstract,2020.2.10,60.26167862538071,
,Fix2,stimuli/Dangerous/46.jpg,right,,,,,,,,,,,0,23,23,23,,,,,,,,,,,,,,,,,,,,,,,,,,,,,,,,,,,354.34856309399765,None,354.34856309399765,None,right,1,1.3137284229997022,354.34856309399765,None,1,355.68287769499875,None,,,,,,,,,,,,,,,,,,,,,,,,,,,,,,,,,,,,,,,,,,,,,,,,,,,,,,,,,,,2,001,2021_Feb_23_1855,cal_abstract,2020.2.10,60.26167862538071,
,Fix1,stimuli/School/10.jpg,left,,,,,,,,,,,0,24,24,24,,,,,,,,,,,,,,,,,,,,,,,,,,,,,,,,,,,356.44986484999754,None,356.44986484999754,None,left,1,1.8154179269986344,356.44986484999754,None,1,358.283121638,None,,,,,,,,,,,,,,,,,,,,,,,,,,,,,,,,,,,,,,,,,,,,,,,,,,,,,,,,,,,2,001,2021_Feb_23_1855,cal_abstract,2020.2.10,60.26167862538071,
,Fix1,stimuli/School/50.jpg,left,,,,,,,,,,,0,25,25,25,,,,,,,,,,,,,,,,,,,,,,,,,,,,,,,,,,,359.0499280599979,None,359.0499280599979,None,right,0,1.0670627950021299,359.0499280599979,None,0,360.150193194997,None,,,,,,,,,,,,,,,,,,,,,,,,,,,,,,,,,,,,,,,,,,,,,,,,,,,,,,,,,,,2,001,2021_Feb_23_1855,cal_abstract,2020.2.10,60.26167862538071,
,Cond,stimuli/Small/19.jpg,right,,,,,,,,,,,0,26,26,26,,,,,,,,,,,,,,,,,,,,,,,,,,,,,,,,,,,360.91679317799935,None,360.91679317799935,None,left,0,1.9251750479998009,360.91679317799935,None,0,362.8663974629999,None,,,,,,,,,,,,,,,,,,,,,,,,,,,,,,,,,,,,,,,,,,,,,,,,,,,,,,,,,,,2,001,2021_Feb_23_1855,cal_abstract,2020.2.10,60.26167862538071,
,Fix1,stimuli/School/28.jpg,left,,,,,,,,,,,0,27,27,27,,,,,,,,,,,,,,,,,,,,,,,,,,,,,,,,,,,363.6338260529992,None,363.6338260529992,None,left,1,1.2119377599992731,363.6338260529992,None,1,364.86718273299994,None,,,,,,,,,,,,,,,,,,,,,,,,,,,,,,,,,,,,,,,,,,,,,,,,,,,,,,,,,,,2,001,2021_Feb_23_1855,cal_abstract,2020.2.10,60.26167862538071,
,Fix1,stimuli/School/35.jpg,left,,,,,,,,,,,0,28,28,28,,,,,,,,,,,,,,,,,,,,,,,,,,,,,,,,,,,365.63299720699797,None,365.63299720699797,None,right,0,0.9367846579989418,365.63299720699797,None,0,366.5997444929999,None,,,,,,,,,,,,,,,,,,,,,,,,,,,,,,,,,,,,,,,,,,,,,,,,,,,,,,,,,,,2,001,2021_Feb_23_1855,cal_abstract,2020.2.10,60.26167862538071,
,Fix1,stimuli/School/39.jpg,left,,,,,,,,,,,0,29,29,29,,,,,,,,,,,,,,,,,,,,,,,,,,,,,,,,,,,367.3671510999993,None,367.3671510999993,None,left,1,1.0253021700009413,367.3671510999993,None,1,368.4173710599971,None,,,,,,,,,,,,,,,,,,,,,,,,,,,,,,,,,,,,,,,,,,,,,,,,,,,,,,,,,,,2,001,2021_Feb_23_1855,cal_abstract,2020.2.10,60.26167862538071,
,Cond,stimuli/Small/42.jpg,right,,,,,,,,,,,0,30,30,30,,,,,,,,,,,,,,,,,,,,,,,,,,,,,,,,,,,369.18400806799764,None,369.18400806799764,None,left,0,0.5975475249979354,369.18400806799764,None,0,369.8009228029987,None,,,,,,,,,,,,,,,,,,,,,,,,,,,,,,,,,,,,,,,,,,,,,,,,,,,,,,,,,,,2,001,2021_Feb_23_1855,cal_abstract,2020.2.10,60.26167862538071,
,Fix2,stimuli/Dangerous/31.jpg,right,,,,,,,,,,,0,31,31,31,,,,,,,,,,,,,,,,,,,,,,,,,,,,,,,,,,,370.5674335249969,None,370.5674335249969,None,right,1,3.763186157997552,370.5674335249969,None,1,374.35075805499946,None,,,,,,,,,,,,,,,,,,,,,,,,,,,,,,,,,,,,,,,,,,,,,,,,,,,,,,,,,,,2,001,2021_Feb_23_1855,cal_abstract,2020.2.10,60.26167862538071,
,Cond,stimuli/Small/25.jpg,left,,,,,,,,,,,0,32,32,32,,,,,,,,,,,,,,,,,,,,,,,,,,,,,,,,,,,375.1174108399973,None,375.1174108399973,None,right,0,1.8298784500002512,375.1174108399973,None,0,376.96768248999797,None,,,,,,,,,,,,,,,,,,,,,,,,,,,,,,,,,,,,,,,,,,,,,,,,,,,,,,,,,,,2,001,2021_Feb_23_1855,cal_abstract,2020.2.10,60.26167862538071,
,Cond,stimuli/Small/9.jpg,right,,,,,,,,,,,0,33,33,33,,,,,,,,,,,,,,,,,,,,,,,,,,,,,,,,,,,377.73459846999685,None,377.73459846999685,None,left,0,1.7786980099990615,377.73459846999685,None,0,379.53466880799897,None,,,,,,,,,,,,,,,,,,,,,,,,,,,,,,,,,,,,,,,,,,,,,,,,,,,,,,,,,,,2,001,2021_Feb_23_1855,cal_abstract,2020.2.10,60.26167862538071,
,Fix1,stimuli/School/9.jpg,left,,,,,,,,,,,0,34,34,34,,,,,,,,,,,,,,,,,,,,,,,,,,,,,,,,,,,380.30163509999693,None,380.30163509999693,None,right,0,4.531146634999459,380.30163509999693,None,0,384.85130553499766,None,,,,,,,,,,,,,,,,,,,,,,,,,,,,,,,,,,,,,,,,,,,,,,,,,,,,,,,,,,,2,001,2021_Feb_23_1855,cal_abstract,2020.2.10,60.26167862538071,
,Fix1,stimuli/School/23.jpg,left,,,,,,,,,,,0,35,35,35,,,,,,,,,,,,,,,,,,,,,,,,,,,,,,,,,,,385.61851143999957,None,385.61851143999957,None,left,1,3.7298838950009667,385.61851143999957,None,1,389.36850951799715,None,,,,,,,,,,,,,,,,,,,,,,,,,,,,,,,,,,,,,,,,,,,,,,,,,,,,,,,,,,,2,001,2021_Feb_23_1855,cal_abstract,2020.2.10,60.26167862538071,
,Fix1,stimuli/School/54.jpg,left,,,,,,,,,,,0,36,36,36,,,,,,,,,,,,,,,,,,,,,,,,,,,,,,,,,,,390.13505298999735,None,390.13505298999735,None,left,1,1.3504729230007797,390.13505298999735,None,1,391.5189765799987,None,,,,,,,,,,,,,,,,,,,,,,,,,,,,,,,,,,,,,,,,,,,,,,,,,,,,,,,,,,,2,001,2021_Feb_23_1855,cal_abstract,2020.2.10,60.26167862538071,
,Cond,stimuli/Small/43.jpg,right,,,,,,,,,,,0,37,37,37,,,,,,,,,,,,,,,,,,,,,,,,,,,,,,,,,,,392.2853668030002,None,392.2853668030002,None,left,0,0.9230191220012784,392.2853668030002,None,0,393.2354205929987,None,,,,,,,,,,,,,,,,,,,,,,,,,,,,,,,,,,,,,,,,,,,,,,,,,,,,,,,,,,,2,001,2021_Feb_23_1855,cal_abstract,2020.2.10,60.26167862538071,
,Fix2,stimuli/Dangerous/22.jpg,right,,,,,,,,,,,0,38,38,38,,,,,,,,,,,,,,,,,,,,,,,,,,,,,,,,,,,394.00163474799774,None,394.00163474799774,None,right,1,0.9386859279984492,394.00163474799774,None,1,394.9691398349969,None,,,,,,,,,,,,,,,,,,,,,,,,,,,,,,,,,,,,,,,,,,,,,,,,,,,,,,,,,,,2,001,2021_Feb_23_1855,cal_abstract,2020.2.10,60.26167862538071,
,Fix2,stimuli/Dangerous/43.jpg,right,,,,,,,,,,,0,39,39,39,,,,,,,,,,,,,,,,,,,,,,,,,,,,,,,,,,,395.7348861399987,None,395.7348861399987,None,right,1,1.8970950779985287,395.7348861399987,None,1,397.6527289629994,None,,,,,,,,,,,,,,,,,,,,,,,,,,,,,,,,,,,,,,,,,,,,,,,,,,,,,,,,,,,2,001,2021_Feb_23_1855,cal_abstract,2020.2.10,60.26167862538071,
,Cond,stimuli/Small/36.jpg,left,,,,,,,,,,,0,40,40,40,,,,,,,,,,,,,,,,,,,,,,,,,,,,,,,,,,,398.421784457998,None,398.421784457998,None,right,0,1.3632411970029352,398.421784457998,None,0,399.8026639029995,None,,,,,,,,,,,,,,,,,,,,,,,,,,,,,,,,,,,,,,,,,,,,,,,,,,,,,,,,,,,2,001,2021_Feb_23_1855,cal_abstract,2020.2.10,60.26167862538071,
,Fix2,stimuli/Dangerous/38.jpg,right,,,,,,,,,,,0,41,41,41,,,,,,,,,,,,,,,,,,,,,,,,,,,,,,,,,,,400.5696168379982,None,400.5696168379982,None,left,0,1.1923202670004684,400.5696168379982,None,0,401.7863400529968,None,,,,,,,,,,,,,,,,,,,,,,,,,,,,,,,,,,,,,,,,,,,,,,,,,,,,,,,,,,,2,001,2021_Feb_23_1855,cal_abstract,2020.2.10,60.26167862538071,
,Fix1,stimuli/School/18.jpg,left,,,,,,,,,,,0,42,42,42,,,,,,,,,,,,,,,,,,,,,,,,,,,,,,,,,,,402.55301640799735,None,402.55301640799735,None,right,0,0.6989840650021506,402.55301640799735,None,0,403.2696845799983,None,,,,,,,,,,,,,,,,,,,,,,,,,,,,,,,,,,,,,,,,,,,,,,,,,,,,,,,,,,,2,001,2021_Feb_23_1855,cal_abstract,2020.2.10,60.26167862538071,
,Fix1,stimuli/School/36.jpg,left,,,,,,,,,,,0,43,43,43,,,,,,,,,,,,,,,,,,,,,,,,,,,,,,,,,,,404.0365086599995,None,404.0365086599995,None,right,0,0.4000153630004206,404.0365086599995,None,0,404.4695033579992,None,,,,,,,,,,,,,,,,,,,,,,,,,,,,,,,,,,,,,,,,,,,,,,,,,,,,,,,,,,,2,001,2021_Feb_23_1855,cal_abstract,2020.2.10,60.26167862538071,
,Fix1,stimuli/School/48.jpg,left,,,,,,,,,,,0,44,44,44,,,,,,,,,,,,,,,,,,,,,,,,,,,,,,,,,,,405.236478134997,None,405.236478134997,None,right,0,0.4611471979987982,405.236478134997,None,0,405.71934627799783,None,,,,,,,,,,,,,,,,,,,,,,,,,,,,,,,,,,,,,,,,,,,,,,,,,,,,,,,,,,,2,001,2021_Feb_23_1855,cal_abstract,2020.2.10,60.26167862538071,
,Fix1,stimuli/School/42.jpg,left,,,,,,,,,,,0,45,45,45,,,,,,,,,,,,,,,,,,,,,,,,,,,,,,,,,,,406.4866829579987,None,406.4866829579987,None,right,0,0.5378566420004063,406.4866829579987,None,0,407.0533932299986,None,,,,,,,,,,,,,,,,,,,,,,,,,,,,,,,,,,,,,,,,,,,,,,,,,,,,,,,,,,,2,001,2021_Feb_23_1855,cal_abstract,2020.2.10,60.26167862538071,
,Cond,stimuli/Small/23.jpg,right,,,,,,,,,,,0,46,46,46,,,,,,,,,,,,,,,,,,,,,,,,,,,,,,,,,,,407.81995515000017,None,407.81995515000017,None,left,0,1.339298319999216,407.81995515000017,None,0,409.1866893899969,None,,,,,,,,,,,,,,,,,,,,,,,,,,,,,,,,,,,,,,,,,,,,,,,,,,,,,,,,,,,2,001,2021_Feb_23_1855,cal_abstract,2020.2.10,60.26167862538071,
,Cond,stimuli/Small/38.jpg,left,,,,,,,,,,,0,47,47,47,,,,,,,,,,,,,,,,,,,,,,,,,,,,,,,,,,,409.9535292929977,None,409.9535292929977,None,right,0,0.6687182230016333,409.9535292929977,None,0,410.6534156079979,None,,,,,,,,,,,,,,,,,,,,,,,,,,,,,,,,,,,,,,,,,,,,,,,,,,,,,,,,,,,2,001,2021_Feb_23_1855,cal_abstract,2020.2.10,60.26167862538071,
,Cond,stimuli/Small/55.jpg,right,,,,,,,,,,,0,48,48,48,,,,,,,,,,,,,,,,,,,,,,,,,,,,,,,,,,,411.4202969199978,None,411.4202969199978,None,left,0,3.522832534999907,411.4202969199978,None,0,414.970455355,None,,,,,,,,,,,,,,,,,,,,,,,,,,,,,,,,,,,,,,,,,,,,,,,,,,,,,,,,,,,2,001,2021_Feb_23_1855,cal_abstract,2020.2.10,60.26167862538071,
,Cond,stimuli/Small/1.jpg,left,,,,,,,,,,,0,49,49,49,,,,,,,,,,,,,,,,,,,,,,,,,,,,,,,,,,,415.7372093449994,None,415.7372093449994,None,right,0,6.364342572000169,415.7372093449994,None,0,422.12117271999887,None,,,,,,,,,,,,,,,,,,,,,,,,,,,,,,,,,,,,,,,,,,,,,,,,,,,,,,,,,,,2,001,2021_Feb_23_1855,cal_abstract,2020.2.10,60.26167862538071,
,Fix1,stimuli/School/6.jpg,left,,,,,,,,,,,0,50,50,50,,,,,,,,,,,,,,,,,,,,,,,,,,,,,,,,,,,422.8877368180001,None,422.8877368180001,None,right,0,2.096897056999296,422.8877368180001,None,0,425.00440533299843,None,,,,,,,,,,,,,,,,,,,,,,,,,,,,,,,,,,,,,,,,,,,,,,,,,,,,,,,,,,,2,001,2021_Feb_23_1855,cal_abstract,2020.2.10,60.26167862538071,
,Fix2,stimuli/Dangerous/18.jpg,right,,,,,,,,,,,0,51,51,51,,,,,,,,,,,,,,,,,,,,,,,,,,,,,,,,,,,425.77128981999704,None,425.77128981999704,None,left,0,1.5712607500026934,425.77128981999704,None,0,427.3707051299971,None,,,,,,,,,,,,,,,,,,,,,,,,,,,,,,,,,,,,,,,,,,,,,,,,,,,,,,,,,,,2,001,2021_Feb_23_1855,cal_abstract,2020.2.10,60.26167862538071,
,Fix1,stimuli/School/1.jpg,left,,,,,,,,,,,0,52,52,52,,,,,,,,,,,,,,,,,,,,,,,,,,,,,,,,,,,428.1376960130001,None,428.1376960130001,None,left,1,3.796922382000048,428.1376960130001,None,1,431.9546110679985,None,,,,,,,,,,,,,,,,,,,,,,,,,,,,,,,,,,,,,,,,,,,,,,,,,,,,,,,,,,,2,001,2021_Feb_23_1855,cal_abstract,2020.2.10,60.26167862538071,
,Cond,stimuli/Small/33.jpg,right,,,,,,,,,,,0,53,53,53,,,,,,,,,,,,,,,,,,,,,,,,,,,,,,,,,,,432.72186184999737,None,432.72186184999737,None,right,1,1.2571052579987736,432.72186184999737,None,1,434.00508716999684,None,,,,,,,,,,,,,,,,,,,,,,,,,,,,,,,,,,,,,,,,,,,,,,,,,,,,,,,,,,,2,001,2021_Feb_23_1855,cal_abstract,2020.2.10,60.26167862538071,
,Cond,stimuli/Small/12.jpg,left,,,,,,,,,,,0,54,54,54,,,,,,,,,,,,,,,,,,,,,,,,,,,,,,,,,,,434.77187322999816,None,434.77187322999816,None,left,1,0.9469877999981691,434.77187322999816,None,1,435.7387817130002,None,,,,,,,,,,,,,,,,,,,,,,,,,,,,,,,,,,,,,,,,,,,,,,,,,,,,,,,,,,,2,001,2021_Feb_23_1855,cal_abstract,2020.2.10,60.26167862538071,
,Cond,stimuli/Small/17.jpg,right,,,,,,,,,,,0,55,55,55,,,,,,,,,,,,,,,,,,,,,,,,,,,,,,,,,,,436.50553063799816,None,436.50553063799816,None,right,1,0.7422551749987178,436.50553063799816,None,1,437.27195972499976,None,,,,,,,,,,,,,,,,,,,,,,,,,,,,,,,,,,,,,,,,,,,,,,,,,,,,,,,,,,,2,001,2021_Feb_23_1855,cal_abstract,2020.2.10,60.26167862538071,
,Fix1,stimuli/School/17.jpg,left,,,,,,,,,,,0,56,56,56,,,,,,,,,,,,,,,,,,,,,,,,,,,,,,,,,,,438.0387878949987,None,438.0387878949987,None,left,1,2.406804832000489,438.0387878949987,None,1,440.4717442129986,None,,,,,,,,,,,,,,,,,,,,,,,,,,,,,,,,,,,,,,,,,,,,,,,,,,,,,,,,,,,2,001,2021_Feb_23_1855,cal_abstract,2020.2.10,60.26167862538071,
,Cond,stimuli/Small/11.jpg,right,,,,,,,,,,,0,57,57,57,,,,,,,,,,,,,,,,,,,,,,,,,,,,,,,,,,,441.23907895999946,None,441.23907895999946,None,right,1,0.6646907149988692,441.23907895999946,None,1,441.92241938499865,None,,,,,,,,,,,,,,,,,,,,,,,,,,,,,,,,,,,,,,,,,,,,,,,,,,,,,,,,,,,2,001,2021_Feb_23_1855,cal_abstract,2020.2.10,60.26167862538071,
,Fix1,stimuli/School/33.jpg,left,,,,,,,,,,,0,58,58,58,,,,,,,,,,,,,,,,,,,,,,,,,,,,,,,,,,,442.68923559299947,None,442.68923559299947,None,left,1,1.0240062930024578,442.68923559299947,None,1,443.7391952679973,None,,,,,,,,,,,,,,,,,,,,,,,,,,,,,,,,,,,,,,,,,,,,,,,,,,,,,,,,,,,2,001,2021_Feb_23_1855,cal_abstract,2020.2.10,60.26167862538071,
,Cond,stimuli/Small/18.jpg,right,,,,,,,,,,,0,59,59,59,,,,,,,,,,,,,,,,,,,,,,,,,,,,,,,,,,,444.5059019729997,None,444.5059019729997,None,right,1,0.7734068600002502,444.5059019729997,None,1,445.3054713549973,None,,,,,,,,,,,,,,,,,,,,,,,,,,,,,,,,,,,,,,,,,,,,,,,,,,,,,,,,,,,2,001,2021_Feb_23_1855,cal_abstract,2020.2.10,60.26167862538071,
,Fix2,stimuli/Dangerous/61.jpg,right,,,,,,,,,,,0,60,60,60,,,,,,,,,,,,,,,,,,,,,,,,,,,,,,,,,,,446.07265157299844,None,446.07265157299844,None,left,0,0.621566788002383,446.07265157299844,None,0,446.72236947299825,None,,,,,,,,,,,,,,,,,,,,,,,,,,,,,,,,,,,,,,,,,,,,,,,,,,,,,,,,,,,2,001,2021_Feb_23_1855,cal_abstract,2020.2.10,60.26167862538071,
,Fix2,stimuli/Dangerous/32.jpg,right,,,,,,,,,,,0,61,61,61,,,,,,,,,,,,,,,,,,,,,,,,,,,,,,,,,,,447.48956841799736,None,447.48956841799736,None,left,0,1.4773357619997114,447.48956841799736,None,0,448.98971770299977,None,,,,,,,,,,,,,,,,,,,,,,,,,,,,,,,,,,,,,,,,,,,,,,,,,,,,,,,,,,,2,001,2021_Feb_23_1855,cal_abstract,2020.2.10,60.26167862538071,
,Fix2,stimuli/Dangerous/28.jpg,right,,,,,,,,,,,0,62,62,62,,,,,,,,,,,,,,,,,,,,,,,,,,,,,,,,,,,449.75620892000006,None,449.75620892000006,None,right,1,0.5837105050013633,449.75620892000006,None,1,450.3728075250001,None,,,,,,,,,,,,,,,,,,,,,,,,,,,,,,,,,,,,,,,,,,,,,,,,,,,,,,,,,,,2,001,2021_Feb_23_1855,cal_abstract,2020.2.10,60.26167862538071,
,Cond,stimuli/Small/16.jpg,left,,,,,,,,,,,0,63,63,63,,,,,,,,,,,,,,,,,,,,,,,,,,,,,,,,,,,451.1398329980002,None,451.1398329980002,None,right,0,1.8030366849998245,451.1398329980002,None,0,452.9729973249996,None,,,,,,,,,,,,,,,,,,,,,,,,,,,,,,,,,,,,,,,,,,,,,,,,,,,,,,,,,,,2,001,2021_Feb_23_1855,cal_abstract,2020.2.10,60.26167862538071,
,Cond,stimuli/Small/14.jpg,right,,,,,,,,,,,0,64,64,64,,,,,,,,,,,,,,,,,,,,,,,,,,,,,,,,,,,453.7399058529991,None,453.7399058529991,None,left,0,0.48681342999771005,453.7399058529991,None,0,454.25647325299724,None,,,,,,,,,,,,,,,,,,,,,,,,,,,,,,,,,,,,,,,,,,,,,,,,,,,,,,,,,,,2,001,2021_Feb_23_1855,cal_abstract,2020.2.10,60.26167862538071,
,Fix2,stimuli/Dangerous/35.jpg,right,,,,,,,,,,,0,65,65,65,,,,,,,,,,,,,,,,,,,,,,,,,,,,,,,,,,,455.02327318300013,None,455.02327318300013,None,right,1,0.3083481249996112,455.02327318300013,None,1,455.3564840049985,None,,,,,,,,,,,,,,,,,,,,,,,,,,,,,,,,,,,,,,,,,,,,,,,,,,,,,,,,,,,2,001,2021_Feb_23_1855,cal_abstract,2020.2.10,60.26167862538071,
,Fix2,stimuli/Dangerous/3.jpg,right,,,,,,,,,,,0,66,66,66,,,,,,,,,,,,,,,,,,,,,,,,,,,,,,,,,,,456.12332854299893,None,456.12332854299893,None,left,0,1.3862741720004124,456.12332854299893,None,0,457.5400150079986,None,,,,,,,,,,,,,,,,,,,,,,,,,,,,,,,,,,,,,,,,,,,,,,,,,,,,,,,,,,,2,001,2021_Feb_23_1855,cal_abstract,2020.2.10,60.26167862538071,
,Cond,stimuli/Small/45.jpg,left,,,,,,,,,,,0,67,67,67,,,,,,,,,,,,,,,,,,,,,,,,,,,,,,,,,,,458.3069600799972,None,458.3069600799972,None,right,0,0.43946748199959984,458.3069600799972,None,0,458.7734320499985,None,,,,,,,,,,,,,,,,,,,,,,,,,,,,,,,,,,,,,,,,,,,,,,,,,,,,,,,,,,,2,001,2021_Feb_23_1855,cal_abstract,2020.2.10,60.26167862538071,
,Fix2,stimuli/Dangerous/10.jpg,right,,,,,,,,,,,0,68,68,68,,,,,,,,,,,,,,,,,,,,,,,,,,,,,,,,,,,459.5402226749975,None,459.5402226749975,None,right,1,1.968937821999134,459.5402226749975,None,1,461.5400599329987,None,,,,,,,,,,,,,,,,,,,,,,,,,,,,,,,,,,,,,,,,,,,,,,,,,,,,,,,,,,,2,001,2021_Feb_23_1855,cal_abstract,2020.2.10,60.26167862538071,
,Fix2,stimuli/Dangerous/9.jpg,right,,,,,,,,,,,0,69,69,69,,,,,,,,,,,,,,,,,,,,,,,,,,,,,,,,,,,462.3071895599969,None,462.3071895599969,None,left,0,2.762743807001243,462.3071895599969,None,0,465.0905549929994,None,,,,,,,,,,,,,,,,,,,,,,,,,,,,,,,,,,,,,,,,,,,,,,,,,,,,,,,,,,,2,001,2021_Feb_23_1855,cal_abstract,2020.2.10,60.26167862538071,
,Cond,stimuli/Small/31.jpg,left,,,,,,,,,,,0,70,70,70,,,,,,,,,,,,,,,,,,,,,,,,,,,,,,,,,,,465.85716690999834,None,465.85716690999834,None,left,1,1.0437496630001988,465.85716690999834,None,1,466.9239732699971,None,,,,,,,,,,,,,,,,,,,,,,,,,,,,,,,,,,,,,,,,,,,,,,,,,,,,,,,,,,,2,001,2021_Feb_23_1855,cal_abstract,2020.2.10,60.26167862538071,
,Fix1,stimuli/School/19.jpg,left,,,,,,,,,,,0,71,71,71,,,,,,,,,,,,,,,,,,,,,,,,,,,,,,,,,,,467.6904262600001,None,467.6904262600001,None,left,1,4.229674122001597,467.6904262600001,None,1,471.94110027999704,None,,,,,,,,,,,,,,,,,,,,,,,,,,,,,,,,,,,,,,,,,,,,,,,,,,,,,,,,,,,2,001,2021_Feb_23_1855,cal_abstract,2020.2.10,60.26167862538071,
,Fix1,stimuli/School/11.jpg,left,,,,,,,,,,,0,72,72,72,,,,,,,,,,,,,,,,,,,,,,,,,,,,,,,,,,,472.70782576299825,None,472.70782576299825,None,left,1,1.087019357997633,472.70782576299825,None,1,473.8246650999972,None,,,,,,,,,,,,,,,,,,,,,,,,,,,,,,,,,,,,,,,,,,,,,,,,,,,,,,,,,,,2,001,2021_Feb_23_1855,cal_abstract,2020.2.10,60.26167862538071,
,Fix1,stimuli/School/31.jpg,left,,,,,,,,,,,0,73,73,73,,,,,,,,,,,,,,,,,,,,,,,,,,,,,,,,,,,474.5912851799985,None,474.5912851799985,None,left,1,1.1682653429998027,474.5912851799985,None,1,475.79140233,None,,,,,,,,,,,,,,,,,,,,,,,,,,,,,,,,,,,,,,,,,,,,,,,,,,,,,,,,,,,2,001,2021_Feb_23_1855,cal_abstract,2020.2.10,60.26167862538071,
,Fix1,stimuli/School/21.jpg,left,,,,,,,,,,,0,74,74,74,,,,,,,,,,,,,,,,,,,,,,,,,,,,,,,,,,,476.5577470479984,None,476.5577470479984,None,right,0,2.220778015001997,476.5577470479984,None,0,478.8078066099988,None,,,,,,,,,,,,,,,,,,,,,,,,,,,,,,,,,,,,,,,,,,,,,,,,,,,,,,,,,,,2,001,2021_Feb_23_1855,cal_abstract,2020.2.10,60.26167862538071,
,Fix1,stimuli/School/55.jpg,left,,,,,,,,,,,0,75,75,75,,,,,,,,,,,,,,,,,,,,,,,,,,,,,,,,,,,479.57496607499706,None,479.57496607499706,None,left,1,1.7454557349992683,479.57496607499706,None,1,481.341750738,None,,,,,,,,,,,,,,,,,,,,,,,,,,,,,,,,,,,,,,,,,,,,,,,,,,,,,,,,,,,2,001,2021_Feb_23_1855,cal_abstract,2020.2.10,60.26167862538071,
,Cond,stimuli/Small/32.jpg,right,,,,,,,,,,,0,76,76,76,,,,,,,,,,,,,,,,,,,,,,,,,,,,,,,,,,,482.10847964999994,None,482.10847964999994,None,right,1,1.2029234120018373,482.10847964999994,None,1,483.3419508400002,None,,,,,,,,,,,,,,,,,,,,,,,,,,,,,,,,,,,,,,,,,,,,,,,,,,,,,,,,,,,2,001,2021_Feb_23_1855,cal_abstract,2020.2.10,60.26167862538071,
,Fix2,stimuli/Dangerous/48.jpg,right,,,,,,,,,,,0,77,77,77,,,,,,,,,,,,,,,,,,,,,,,,,,,,,,,,,,,484.1083391229986,None,484.1083391229986,None,right,1,0.9077162530011265,484.1083391229986,None,1,485.04045421299816,None,,,,,,,,,,,,,,,,,,,,,,,,,,,,,,,,,,,,,,,,,,,,,,,,,,,,,,,,,,,2,001,2021_Feb_23_1855,cal_abstract,2020.2.10,60.26167862538071,
,Cond,stimuli/Small/5.jpg,left,,,,,,,,,,,0,78,78,78,,,,,,,,,,,,,,,,,,,,,,,,,,,,,,,,,,,485.8086108779971,None,485.8086108779971,None,left,1,3.1922483119997196,485.8086108779971,None,1,489.025593129998,None,,,,,,,,,,,,,,,,,,,,,,,,,,,,,,,,,,,,,,,,,,,,,,,,,,,,,,,,,,,2,001,2021_Feb_23_1855,cal_abstract,2020.2.10,60.26167862538071,
,Fix1,stimuli/School/37.jpg,left,,,,,,,,,,,0,79,79,79,,,,,,,,,,,,,,,,,,,,,,,,,,,,,,,,,,,489.79246817499734,None,489.79246817499734,None,left,1,2.7590097350002907,489.79246817499734,None,1,492.5754746829989,None,,,,,,,,,,,,,,,,,,,,,,,,,,,,,,,,,,,,,,,,,,,,,,,,,,,,,,,,,,,2,001,2021_Feb_23_1855,cal_abstract,2020.2.10,60.26167862538071,
,Fix1,stimuli/School/27.jpg,left,,,,,,,,,,,0,80,80,80,,,,,,,,,,,,,,,,,,,,,,,,,,,,,,,,,,,493.3425865129975,None,493.3425865129975,None,left,1,3.7134015999981784,493.3425865129975,None,1,497.0759743879971,None,,,,,,,,,,,,,,,,,,,,,,,,,,,,,,,,,,,,,,,,,,,,,,,,,,,,,,,,,,,2,001,2021_Feb_23_1855,cal_abstract,2020.2.10,60.26167862538071,
,Cond,stimuli/Small/28.jpg,right,,,,,,,,,,,0,81,81,81,,,,,,,,,,,,,,,,,,,,,,,,,,,,,,,,,,,497.8428022579974,None,497.8428022579974,None,right,1,2.8539490479997767,497.8428022579974,None,1,500.72638342799837,None,,,,,,,,,,,,,,,,,,,,,,,,,,,,,,,,,,,,,,,,,,,,,,,,,,,,,,,,,,,2,001,2021_Feb_23_1855,cal_abstract,2020.2.10,60.26167862538071,
,Cond,stimuli/Small/30.jpg,left,,,,,,,,,,,0,82,82,82,,,,,,,,,,,,,,,,,,,,,,,,,,,,,,,,,,,501.49322608799775,None,501.49322608799775,None,right,0,4.095229277001636,501.49322608799775,None,0,505.6088889999992,None,,,,,,,,,,,,,,,,,,,,,,,,,,,,,,,,,,,,,,,,,,,,,,,,,,,,,,,,,,,2,001,2021_Feb_23_1855,cal_abstract,2020.2.10,60.26167862538071,
,Fix1,stimuli/School/59.jpg,left,,,,,,,,,,,0,83,83,83,,,,,,,,,,,,,,,,,,,,,,,,,,,,,,,,,,,506.37625993300026,None,506.37625993300026,None,left,1,1.6768084850009473,506.37625993300026,None,1,508.07687842299856,None,,,,,,,,,,,,,,,,,,,,,,,,,,,,,,,,,,,,,,,,,,,,,,,,,,,,,,,,,,,2,001,2021_Feb_23_1855,cal_abstract,2020.2.10,60.26167862538071,
,Fix2,stimuli/Dangerous/7.jpg,right,,,,,,,,,,,0,84,84,84,,,,,,,,,,,,,,,,,,,,,,,,,,,,,,,,,,,508.8438238130002,None,508.8438238130002,None,right,1,0.9391348650024156,508.8438238130002,None,1,509.8101259399991,None,,,,,,,,,,,,,,,,,,,,,,,,,,,,,,,,,,,,,,,,,,,,,,,,,,,,,,,,,,,2,001,2021_Feb_23_1855,cal_abstract,2020.2.10,60.26167862538071,
,Cond,stimuli/Small/37.jpg,left,,,,,,,,,,,0,85,85,85,,,,,,,,,,,,,,,,,,,,,,,,,,,,,,,,,,,510.57712054799777,None,510.57712054799777,None,left,1,1.216672139998991,510.57712054799777,None,1,511.8270488979979,None,,,,,,,,,,,,,,,,,,,,,,,,,,,,,,,,,,,,,,,,,,,,,,,,,,,,,,,,,,,2,001,2021_Feb_23_1855,cal_abstract,2020.2.10,60.26167862538071,
,Fix1,stimuli/School/13.jpg,left,,,,,,,,,,,0,86,86,86,,,,,,,,,,,,,,,,,,,,,,,,,,,,,,,,,,,512.5940390999967,None,512.5940390999967,None,left,1,2.2546079349995125,512.5940390999967,None,1,514.8772800499974,None,,,,,,,,,,,,,,,,,,,,,,,,,,,,,,,,,,,,,,,,,,,,,,,,,,,,,,,,,,,2,001,2021_Feb_23_1855,cal_abstract,2020.2.10,60.26167862538071,
,Fix2,stimuli/Dangerous/14.jpg,right,,,,,,,,,,,0,87,87,87,,,,,,,,,,,,,,,,,,,,,,,,,,,,,,,,,,,515.6441294099968,None,515.6441294099968,None,right,1,0.8113475820027816,515.6441294099968,None,1,516.4775428100002,None,,,,,,,,,,,,,,,,,,,,,,,,,,,,,,,,,,,,,,,,,,,,,,,,,,,,,,,,,,,2,001,2021_Feb_23_1855,cal_abstract,2020.2.10,60.26167862538071,
,Cond,stimuli/Small/50.jpg,left,,,,,,,,,,,0,88,88,88,,,,,,,,,,,,,,,,,,,,,,,,,,,,,,,,,,,517.2439014279989,None,517.2439014279989,None,right,0,5.095370660001208,517.2439014279989,None,0,522.3612720979982,None,,,,,,,,,,,,,,,,,,,,,,,,,,,,,,,,,,,,,,,,,,,,,,,,,,,,,,,,,,,2,001,2021_Feb_23_1855,cal_abstract,2020.2.10,60.26167862538071,
,Fix2,stimuli/Dangerous/63.jpg,right,,,,,,,,,,,0,89,89,89,,,,,,,,,,,,,,,,,,,,,,,,,,,,,,,,,,,523.127702632999,None,523.127702632999,None,right,1,0.6957655619989964,523.127702632999,None,1,523.8445376299969,None,,,,,,,,,,,,,,,,,,,,,,,,,,,,,,,,,,,,,,,,,,,,,,,,,,,,,,,,,,,2,001,2021_Feb_23_1855,cal_abstract,2020.2.10,60.26167862538071,
,Fix2,stimuli/Dangerous/0.jpg,right,,,,,,,,,,,0,90,90,90,,,,,,,,,,,,,,,,,,,,,,,,,,,,,,,,,,,524.610905202997,None,524.610905202997,None,right,1,0.8387074519996531,524.610905202997,None,1,525.4780842,None,,,,,,,,,,,,,,,,,,,,,,,,,,,,,,,,,,,,,,,,,,,,,,,,,,,,,,,,,,,2,001,2021_Feb_23_1855,cal_abstract,2020.2.10,60.26167862538071,
,Fix1,stimuli/School/32.jpg,left,,,,,,,,,,,0,91,91,91,,,,,,,,,,,,,,,,,,,,,,,,,,,,,,,,,,,526.2449846399977,None,526.2449846399977,None,right,0,11.817939930002467,526.2449846399977,None,0,538.0955345449984,None,,,,,,,,,,,,,,,,,,,,,,,,,,,,,,,,,,,,,,,,,,,,,,,,,,,,,,,,,,,2,001,2021_Feb_23_1855,cal_abstract,2020.2.10,60.26167862538071,
,Fix1,stimuli/School/29.jpg,left,,,,,,,,,,,0,92,92,92,,,,,,,,,,,,,,,,,,,,,,,,,,,,,,,,,,,538.8624797249977,None,538.8624797249977,None,left,1,1.5343621030006034,538.8624797249977,None,1,540.4289879499993,None,,,,,,,,,,,,,,,,,,,,,,,,,,,,,,,,,,,,,,,,,,,,,,,,,,,,,,,,,,,2,001,2021_Feb_23_1855,cal_abstract,2020.2.10,60.26167862538071,
,Cond,stimuli/Small/7.jpg,right,,,,,,,,,,,0,93,93,93,,,,,,,,,,,,,,,,,,,,,,,,,,,,,,,,,,,541.1958496749976,None,541.1958496749976,None,left,0,1.068874158001563,541.1958496749976,None,0,542.2958153,None,,,,,,,,,,,,,,,,,,,,,,,,,,,,,,,,,,,,,,,,,,,,,,,,,,,,,,,,,,,2,001,2021_Feb_23_1855,cal_abstract,2020.2.10,60.26167862538071,
,Fix2,stimuli/Dangerous/19.jpg,right,,,,,,,,,,,0,94,94,94,,,,,,,,,,,,,,,,,,,,,,,,,,,,,,,,,,,543.0620482329978,None,543.0620482329978,None,right,1,1.1845639029997983,543.0620482329978,None,1,544.2793448499979,None,,,,,,,,,,,,,,,,,,,,,,,,,,,,,,,,,,,,,,,,,,,,,,,,,,,,,,,,,,,2,001,2021_Feb_23_1855,cal_abstract,2020.2.10,60.26167862538071,
,Cond,stimuli/Small/51.jpg,left,,,,,,,,,,,0,95,95,95,,,,,,,,,,,,,,,,,,,,,,,,,,,,,,,,,,,545.04567408,None,545.04567408,None,left,1,1.4687912199988205,545.04567408,None,1,546.5462265699971,None,,,,,,,,,,,,,,,,,,,,,,,,,,,,,,,,,,,,,,,,,,,,,,,,,,,,,,,,,,,2,001,2021_Feb_23_1855,cal_abstract,2020.2.10,60.26167862538071,
,Fix2,stimuli/Dangerous/4.jpg,right,,,,,,,,,,,0,96,96,96,,,,,,,,,,,,,,,,,,,,,,,,,,,,,,,,,,,547.3129185479993,None,547.3129185479993,None,right,1,1.6990894629998365,547.3129185479993,None,1,549.0299024929991,None,,,,,,,,,,,,,,,,,,,,,,,,,,,,,,,,,,,,,,,,,,,,,,,,,,,,,,,,,,,2,001,2021_Feb_23_1855,cal_abstract,2020.2.10,60.26167862538071,
,Cond,stimuli/Small/24.jpg,left,,,,,,,,,,,0,97,97,97,,,,,,,,,,,,,,,,,,,,,,,,,,,,,,,,,,,549.7964659229983,None,549.7964659229983,None,left,1,10.618353540001408,549.7964659229983,None,1,560.4472417549987,None,,,,,,,,,,,,,,,,,,,,,,,,,,,,,,,,,,,,,,,,,,,,,,,,,,,,,,,,,,,2,001,2021_Feb_23_1855,cal_abstract,2020.2.10,60.26167862538071,
,Fix1,stimuli/School/58.jpg,left,,,,,,,,,,,0,98,98,98,,,,,,,,,,,,,,,,,,,,,,,,,,,,,,,,,,,561.214019133,None,561.214019133,None,right,0,1.0976480130011623,561.214019133,None,0,562.3303554649974,None,,,,,,,,,,,,,,,,,,,,,,,,,,,,,,,,,,,,,,,,,,,,,,,,,,,,,,,,,,,2,001,2021_Feb_23_1855,cal_abstract,2020.2.10,60.26167862538071,
,Cond,stimuli/Small/35.jpg,right,,,,,,,,,,,0,99,99,99,,,,,,,,,,,,,,,,,,,,,,,,,,,,,,,,,,,563.0974285999982,None,563.0974285999982,None,left,0,0.7200890999993135,563.0974285999982,None,0,563.8473146449978,None,,,,,,,,,,,,,,,,,,,,,,,,,,,,,,,,,,,,,,,,,,,,,,,,,,,,,,,,,,,2,001,2021_Feb_23_1855,cal_abstract,2020.2.10,60.26167862538071,
,Cond,stimuli/Small/40.jpg,left,,,,,,,,,,,0,100,100,100,,,,,,,,,,,,,,,,,,,,,,,,,,,,,,,,,,,564.6141560279975,None,564.6141560279975,None,left,1,1.3021408849999716,564.6141560279975,None,1,565.9473212529992,None,,,,,,,,,,,,,,,,,,,,,,,,,,,,,,,,,,,,,,,,,,,,,,,,,,,,,,,,,,,2,001,2021_Feb_23_1855,cal_abstract,2020.2.10,60.26167862538071,
,Cond,stimuli/Small/3.jpg,right,,,,,,,,,,,0,101,101,101,,,,,,,,,,,,,,,,,,,,,,,,,,,,,,,,,,,566.7145782529988,None,566.7145782529988,None,left,0,1.9004791320003278,566.7145782529988,None,0,568.6477306149973,None,,,,,,,,,,,,,,,,,,,,,,,,,,,,,,,,,,,,,,,,,,,,,,,,,,,,,,,,,,,2,001,2021_Feb_23_1855,cal_abstract,2020.2.10,60.26167862538071,
,Fix1,stimuli/School/38.jpg,left,,,,,,,,,,,0,102,102,102,,,,,,,,,,,,,,,,,,,,,,,,,,,,,,,,,,,569.4144821279988,None,569.4144821279988,None,left,1,1.052648799999588,569.4144821279988,None,1,570.49792419,None,,,,,,,,,,,,,,,,,,,,,,,,,,,,,,,,,,,,,,,,,,,,,,,,,,,,,,,,,,,2,001,2021_Feb_23_1855,cal_abstract,2020.2.10,60.26167862538071,
,Fix2,stimuli/Dangerous/26.jpg,right,,,,,,,,,,,0,103,103,103,,,,,,,,,,,,,,,,,,,,,,,,,,,,,,,,,,,571.2811905479975,None,571.2811905479975,None,right,1,1.1597723180020694,571.2811905479975,None,1,572.4648899599997,None,,,,,,,,,,,,,,,,,,,,,,,,,,,,,,,,,,,,,,,,,,,,,,,,,,,,,,,,,,,2,001,2021_Feb_23_1855,cal_abstract,2020.2.10,60.26167862538071,
,Fix1,stimuli/School/51.jpg,left,,,,,,,,,,,0,104,104,104,,,,,,,,,,,,,,,,,,,,,,,,,,,,,,,,,,,573.2315024929994,None,573.2315024929994,None,left,1,1.1781705550019979,573.2315024929994,None,1,574.4305935899974,None,,,,,,,,,,,,,,,,,,,,,,,,,,,,,,,,,,,,,,,,,,,,,,,,,,,,,,,,,,,2,001,2021_Feb_23_1855,cal_abstract,2020.2.10,60.26167862538071,
,Cond,stimuli/Small/56.jpg,right,,,,,,,,,,,0,105,105,105,,,,,,,,,,,,,,,,,,,,,,,,,,,,,,,,,,,575.198222054998,None,575.198222054998,None,left,0,3.928602320000209,575.198222054998,None,0,579.1484787399968,None,,,,,,,,,,,,,,,,,,,,,,,,,,,,,,,,,,,,,,,,,,,,,,,,,,,,,,,,,,,2,001,2021_Feb_23_1855,cal_abstract,2020.2.10,60.26167862538071,
,Cond,stimuli/Small/44.jpg,left,,,,,,,,,,,0,106,106,106,,,,,,,,,,,,,,,,,,,,,,,,,,,,,,,,,,,579.9152379549996,None,579.9152379549996,None,right,0,1.8529786619983497,579.9152379549996,None,0,581.7987031929988,None,,,,,,,,,,,,,,,,,,,,,,,,,,,,,,,,,,,,,,,,,,,,,,,,,,,,,,,,,,,2,001,2021_Feb_23_1855,cal_abstract,2020.2.10,60.26167862538071,
,Fix2,stimuli/Dangerous/36.jpg,right,,,,,,,,,,,0,107,107,107,,,,,,,,,,,,,,,,,,,,,,,,,,,,,,,,,,,582.5654582579991,None,582.5654582579991,None,right,1,1.0196270770029514,582.5654582579991,None,1,583.6320433379988,None,,,,,,,,,,,,,,,,,,,,,,,,,,,,,,,,,,,,,,,,,,,,,,,,,,,,,,,,,,,2,001,2021_Feb_23_1855,cal_abstract,2020.2.10,60.26167862538071,
,Cond,stimuli/Small/54.jpg,left,,,,,,,,,,,0,108,108,108,,,,,,,,,,,,,,,,,,,,,,,,,,,,,,,,,,,584.3977149649982,None,584.3977149649982,None,left,1,5.481897839999874,584.3977149649982,None,1,589.8992298799967,None,,,,,,,,,,,,,,,,,,,,,,,,,,,,,,,,,,,,,,,,,,,,,,,,,,,,,,,,,,,2,001,2021_Feb_23_1855,cal_abstract,2020.2.10,60.26167862538071,
,Fix1,stimuli/School/0.jpg,left,,,,,,,,,,,0,109,109,109,,,,,,,,,,,,,,,,,,,,,,,,,,,,,,,,,,,590.6660129249976,None,590.6660129249976,None,left,1,2.1401117599998543,590.6660129249976,None,1,592.8326805830002,None,,,,,,,,,,,,,,,,,,,,,,,,,,,,,,,,,,,,,,,,,,,,,,,,,,,,,,,,,,,2,001,2021_Feb_23_1855,cal_abstract,2020.2.10,60.26167862538071,
,Fix1,stimuli/School/57.jpg,left,,,,,,,,,,,0,110,110,110,,,,,,,,,,,,,,,,,,,,,,,,,,,,,,,,,,,593.5995031599996,None,593.5995031599996,None,right,0,2.0132784050001646,593.5995031599996,None,0,595.6327381349984,None,,,,,,,,,,,,,,,,,,,,,,,,,,,,,,,,,,,,,,,,,,,,,,,,,,,,,,,,,,,2,001,2021_Feb_23_1855,cal_abstract,2020.2.10,60.26167862538071,
,Fix1,stimuli/School/24.jpg,left,,,,,,,,,,,0,111,111,111,,,,,,,,,,,,,,,,,,,,,,,,,,,,,,,,,,,596.3997016299982,None,596.3997016299982,None,left,1,1.492080125000939,596.3997016299982,None,1,597.916359437997,None,,,,,,,,,,,,,,,,,,,,,,,,,,,,,,,,,,,,,,,,,,,,,,,,,,,,,,,,,,,2,001,2021_Feb_23_1855,cal_abstract,2020.2.10,60.26167862538071,
,Fix2,stimuli/Dangerous/45.jpg,right,,,,,,,,,,,0,112,112,112,,,,,,,,,,,,,,,,,,,,,,,,,,,,,,,,,,,598.6833927199987,None,598.6833927199987,None,right,1,0.9511218499974348,598.6833927199987,None,1,599.66618475,None,,,,,,,,,,,,,,,,,,,,,,,,,,,,,,,,,,,,,,,,,,,,,,,,,,,,,,,,,,,2,001,2021_Feb_23_1855,cal_abstract,2020.2.10,60.26167862538071,
,Fix2,stimuli/Dangerous/40.jpg,right,,,,,,,,,,,0,113,113,113,,,,,,,,,,,,,,,,,,,,,,,,,,,,,,,,,,,600.4334018729969,None,600.4334018729969,None,right,1,0.8911604950008041,600.4334018729969,None,1,601.3499373199993,None,,,,,,,,,,,,,,,,,,,,,,,,,,,,,,,,,,,,,,,,,,,,,,,,,,,,,,,,,,,2,001,2021_Feb_23_1855,cal_abstract,2020.2.10,60.26167862538071,
,Fix2,stimuli/Dangerous/39.jpg,right,,,,,,,,,,,0,114,114,114,,,,,,,,,,,,,,,,,,,,,,,,,,,,,,,,,,,602.1168494579979,None,602.1168494579979,None,right,1,1.0066036969983543,602.1168494579979,None,1,603.1501965030002,None,,,,,,,,,,,,,,,,,,,,,,,,,,,,,,,,,,,,,,,,,,,,,,,,,,,,,,,,,,,2,001,2021_Feb_23_1855,cal_abstract,2020.2.10,60.26167862538071,
,Cond,stimuli/Small/59.jpg,left,,,,,,,,,,,0,115,115,115,,,,,,,,,,,,,,,,,,,,,,,,,,,,,,,,,,,603.9169350429984,None,603.9169350429984,None,left,1,1.1883470620014123,603.9169350429984,None,1,605.1334602149982,None,,,,,,,,,,,,,,,,,,,,,,,,,,,,,,,,,,,,,,,,,,,,,,,,,,,,,,,,,,,2,001,2021_Feb_23_1855,cal_abstract,2020.2.10,60.26167862538071,
,Fix2,stimuli/Dangerous/21.jpg,right,,,,,,,,,,,0,116,116,116,,,,,,,,,,,,,,,,,,,,,,,,,,,,,,,,,,,605.8995683249996,None,605.8995683249996,None,right,1,0.8106592419972003,605.8995683249996,None,1,606.7336317079971,None,,,,,,,,,,,,,,,,,,,,,,,,,,,,,,,,,,,,,,,,,,,,,,,,,,,,,,,,,,,2,001,2021_Feb_23_1855,cal_abstract,2020.2.10,60.26167862538071,
,Fix1,stimuli/School/15.jpg,left,,,,,,,,,,,0,117,117,117,,,,,,,,,,,,,,,,,,,,,,,,,,,,,,,,,,,607.5003945449971,None,607.5003945449971,None,left,1,0.8867807650021859,607.5003945449971,None,1,608.4170831729971,None,,,,,,,,,,,,,,,,,,,,,,,,,,,,,,,,,,,,,,,,,,,,,,,,,,,,,,,,,,,2,001,2021_Feb_23_1855,cal_abstract,2020.2.10,60.26167862538071,
,Fix1,stimuli/School/5.jpg,left,,,,,,,,,,,0,118,118,118,,,,,,,,,,,,,,,,,,,,,,,,,,,,,,,,,,,609.183969204998,None,609.183969204998,None,left,1,0.9139753230010683,609.183969204998,None,1,610.1170020379977,None,,,,,,,,,,,,,,,,,,,,,,,,,,,,,,,,,,,,,,,,,,,,,,,,,,,,,,,,,,,2,001,2021_Feb_23_1855,cal_abstract,2020.2.10,60.26167862538071,
,Fix1,stimuli/School/46.jpg,left,,,,,,,,,,,0,119,119,119,,,,,,,,,,,,,,,,,,,,,,,,,,,,,,,,,,,610.8842002199999,None,610.8842002199999,None,right,0,4.53110816499975,610.8842002199999,None,0,615.4340067529993,None,,,,,,,,,,,,,,,,,,,,,,,,,,,,,,,,,,,,,,,,,,,,,,,,,,,,,,,,,,,2,001,2021_Feb_23_1855,cal_abstract,2020.2.10,60.26167862538071,
,Fix1,stimuli/School/4.jpg,left,,,,,,,,,,,0,120,120,120,,,,,,,,,,,,,,,,,,,,,,,,,,,,,,,,,,,616.201221252999,None,616.201221252999,None,left,1,0.8342743749999499,616.201221252999,None,1,617.0675922549999,None,,,,,,,,,,,,,,,,,,,,,,,,,,,,,,,,,,,,,,,,,,,,,,,,,,,,,,,,,,,2,001,2021_Feb_23_1855,cal_abstract,2020.2.10,60.26167862538071,
,Fix2,stimuli/Dangerous/8.jpg,right,,,,,,,,,,,0,121,121,121,,,,,,,,,,,,,,,,,,,,,,,,,,,,,,,,,,,617.8341959699974,None,617.8341959699974,None,right,1,0.9833377350005321,617.8341959699974,None,1,618.8345844699979,None,,,,,,,,,,,,,,,,,,,,,,,,,,,,,,,,,,,,,,,,,,,,,,,,,,,,,,,,,,,2,001,2021_Feb_23_1855,cal_abstract,2020.2.10,60.26167862538071,
,Fix2,stimuli/Dangerous/17.jpg,right,,,,,,,,,,,0,122,122,122,,,,,,,,,,,,,,,,,,,,,,,,,,,,,,,,,,,619.6012758479992,None,619.6012758479992,None,right,1,2.055067886998586,619.6012758479992,None,1,621.6847317679967,None,,,,,,,,,,,,,,,,,,,,,,,,,,,,,,,,,,,,,,,,,,,,,,,,,,,,,,,,,,,2,001,2021_Feb_23_1855,cal_abstract,2020.2.10,60.26167862538071,
,Fix2,stimuli/Dangerous/1.jpg,right,,,,,,,,,,,0,123,123,123,,,,,,,,,,,,,,,,,,,,,,,,,,,,,,,,,,,622.4514948179967,None,622.4514948179967,None,right,1,2.2716738899980555,622.4514948179967,None,1,624.751713059999,None,,,,,,,,,,,,,,,,,,,,,,,,,,,,,,,,,,,,,,,,,,,,,,,,,,,,,,,,,,,2,001,2021_Feb_23_1855,cal_abstract,2020.2.10,60.26167862538071,
,Fix1,stimuli/School/3.jpg,left,,,,,,,,,,,0,124,124,124,,,,,,,,,,,,,,,,,,,,,,,,,,,,,,,,,,,625.5184911399992,None,625.5184911399992,None,left,1,4.450511858001846,625.5184911399992,None,1,630.0020299479984,None,,,,,,,,,,,,,,,,,,,,,,,,,,,,,,,,,,,,,,,,,,,,,,,,,,,,,,,,,,,2,001,2021_Feb_23_1855,cal_abstract,2020.2.10,60.26167862538071,
,Fix2,stimuli/Dangerous/37.jpg,right,,,,,,,,,,,0,125,125,125,,,,,,,,,,,,,,,,,,,,,,,,,,,,,,,,,,,630.7689589599977,None,630.7689589599977,None,right,1,1.3554613749984128,630.7689589599977,None,1,632.152178843,None,,,,,,,,,,,,,,,,,,,,,,,,,,,,,,,,,,,,,,,,,,,,,,,,,,,,,,,,,,,2,001,2021_Feb_23_1855,cal_abstract,2020.2.10,60.26167862538071,
,Fix1,stimuli/School/22.jpg,left,,,,,,,,,,,0,126,126,126,,,,,,,,,,,,,,,,,,,,,,,,,,,,,,,,,,,632.9190510529988,None,632.9190510529988,None,left,1,2.3132560730009573,632.9190510529988,None,1,635.2523824649979,None,,,,,,,,,,,,,,,,,,,,,,,,,,,,,,,,,,,,,,,,,,,,,,,,,,,,,,,,,,,2,001,2021_Feb_23_1855,cal_abstract,2020.2.10,60.26167862538071,
,Fix2,stimuli/Dangerous/51.jpg,right,,,,,,,,,,,0,127,127,127,,,,,,,,,,,,,,,,,,,,,,,,,,,,,,,,,,,636.019188549999,None,636.019188549999,None,right,1,0.7110743900011585,636.019188549999,None,1,636.7523705679996,None,,,,,,,,,,,,,,,,,,,,,,,,,,,,,,,,,,,,,,,,,,,,,,,,,,,,,,,,,,,2,001,2021_Feb_23_1855,cal_abstract,2020.2.10,60.26167862538071,
,Cond,stimuli/Small/6.jpg,left,,,,,,,,,,,0,128,128,128,,,,,,,,,,,,,,,,,,,,,,,,,,,,,,,,,,,637.5193013949975,None,637.5193013949975,None,left,1,1.3287263219972374,637.5193013949975,None,1,638.868898544999,None,,,,,,,,,,,,,,,,,,,,,,,,,,,,,,,,,,,,,,,,,,,,,,,,,,,,,,,,,,,2,001,2021_Feb_23_1855,cal_abstract,2020.2.10,60.26167862538071,
,Fix1,stimuli/School/12.jpg,left,,,,,,,,,,,0,129,129,129,,,,,,,,,,,,,,,,,,,,,,,,,,,,,,,,,,,639.6363781029977,None,639.6363781029977,None,left,1,0.958639905002201,639.6363781029977,None,1,640.619375637998,None,,,,,,,,,,,,,,,,,,,,,,,,,,,,,,,,,,,,,,,,,,,,,,,,,,,,,,,,,,,2,001,2021_Feb_23_1855,cal_abstract,2020.2.10,60.26167862538071,
,Fix2,stimuli/Dangerous/13.jpg,right,,,,,,,,,,,0,130,130,130,,,,,,,,,,,,,,,,,,,,,,,,,,,,,,,,,,,641.3861490349991,None,641.3861490349991,None,right,1,1.1096439229986572,641.3861490349991,None,1,642.5194176329969,None,,,,,,,,,,,,,,,,,,,,,,,,,,,,,,,,,,,,,,,,,,,,,,,,,,,,,,,,,,,2,001,2021_Feb_23_1855,cal_abstract,2020.2.10,60.26167862538071,
,Fix1,stimuli/School/49.jpg,left,,,,,,,,,,,0,131,131,131,,,,,,,,,,,,,,,,,,,,,,,,,,,,,,,,,,,643.2862263549978,None,643.2862263549978,None,right,0,1.3745288600002823,643.2862263549978,None,0,644.6864197399991,None,,,,,,,,,,,,,,,,,,,,,,,,,,,,,,,,,,,,,,,,,,,,,,,,,,,,,,,,,,,2,001,2021_Feb_23_1855,cal_abstract,2020.2.10,60.26167862538071,
,Fix2,stimuli/Dangerous/2.jpg,right,,,,,,,,,,,0,132,132,132,,,,,,,,,,,,,,,,,,,,,,,,,,,,,,,,,,,645.4530930799992,None,645.4530930799992,None,right,1,0.9624426279988256,645.4530930799992,None,1,646.4358944199994,None,,,,,,,,,,,,,,,,,,,,,,,,,,,,,,,,,,,,,,,,,,,,,,,,,,,,,,,,,,,2,001,2021_Feb_23_1855,cal_abstract,2020.2.10,60.26167862538071,
,Cond,stimuli/Small/52.jpg,left,,,,,,,,,,,0,133,133,133,,,,,,,,,,,,,,,,,,,,,,,,,,,,,,,,,,,647.2027374999998,None,647.2027374999998,None,left,1,2.7025284049996117,647.2027374999998,None,1,649.9366026099997,None,,,,,,,,,,,,,,,,,,,,,,,,,,,,,,,,,,,,,,,,,,,,,,,,,,,,,,,,,,,2,001,2021_Feb_23_1855,cal_abstract,2020.2.10,60.26167862538071,
,Cond,stimuli/Small/27.jpg,right,,,,,,,,,,,0,134,134,134,,,,,,,,,,,,,,,,,,,,,,,,,,,,,,,,,,,650.7033496129989,None,650.7033496129989,None,left,0,1.3830501480006205,650.7033496129989,None,0,652.1025399059981,None,,,,,,,,,,,,,,,,,,,,,,,,,,,,,,,,,,,,,,,,,,,,,,,,,,,,,,,,,,,2,001,2021_Feb_23_1855,cal_abstract,2020.2.10,60.26167862538071,
,Fix1,stimuli/School/41.jpg,left,,,,,,,,,,,0,135,135,135,,,,,,,,,,,,,,,,,,,,,,,,,,,,,,,,,,,652.8702351100001,None,652.8702351100001,None,right,0,2.3297098700022616,652.8702351100001,None,0,655.2202757630002,None,,,,,,,,,,,,,,,,,,,,,,,,,,,,,,,,,,,,,,,,,,,,,,,,,,,,,,,,,,,2,001,2021_Feb_23_1855,cal_abstract,2020.2.10,60.26167862538071,
,Fix1,stimuli/School/40.jpg,left,,,,,,,,,,,0,136,136,136,,,,,,,,,,,,,,,,,,,,,,,,,,,,,,,,,,,655.9872776899974,None,655.9872776899974,None,left,1,1.3345442470017588,655.9872776899974,None,1,657.3539504579967,None,,,,,,,,,,,,,,,,,,,,,,,,,,,,,,,,,,,,,,,,,,,,,,,,,,,,,,,,,,,2,001,2021_Feb_23_1855,cal_abstract,2020.2.10,60.26167862538071,
,Fix2,stimuli/Dangerous/57.jpg,right,,,,,,,,,,,0,137,137,137,,,,,,,,,,,,,,,,,,,,,,,,,,,,,,,,,,,658.1206508929972,None,658.1206508929972,None,right,1,2.3210947070001566,658.1206508929972,None,1,660.4707694029967,None,,,,,,,,,,,,,,,,,,,,,,,,,,,,,,,,,,,,,,,,,,,,,,,,,,,,,,,,,,,2,001,2021_Feb_23_1855,cal_abstract,2020.2.10,60.26167862538071,
,Cond,stimuli/Small/21.jpg,left,,,,,,,,,,,0,138,138,138,,,,,,,,,,,,,,,,,,,,,,,,,,,,,,,,,,,661.2371308799993,None,661.2371308799993,None,left,1,2.132456059996912,661.2371308799993,None,1,663.3875033529985,None,,,,,,,,,,,,,,,,,,,,,,,,,,,,,,,,,,,,,,,,,,,,,,,,,,,,,,,,,,,2,001,2021_Feb_23_1855,cal_abstract,2020.2.10,60.26167862538071,
,Cond,stimuli/Small/48.jpg,right,,,,,,,,,,,0,139,139,139,,,,,,,,,,,,,,,,,,,,,,,,,,,,,,,,,,,664.1544026679985,None,664.1544026679985,None,left,0,5.3026959219969285,664.1544026679985,None,0,669.4880265779975,None,,,,,,,,,,,,,,,,,,,,,,,,,,,,,,,,,,,,,,,,,,,,,,,,,,,,,,,,,,,2,001,2021_Feb_23_1855,cal_abstract,2020.2.10,60.26167862538071,
,Fix2,stimuli/Dangerous/12.jpg,right,,,,,,,,,,,0,140,140,140,,,,,,,,,,,,,,,,,,,,,,,,,,,,,,,,,,,670.2548308449987,None,670.2548308449987,None,right,1,0.9149233620009909,670.2548308449987,None,1,671.1879943280001,None,,,,,,,,,,,,,,,,,,,,,,,,,,,,,,,,,,,,,,,,,,,,,,,,,,,,,,,,,,,2,001,2021_Feb_23_1855,cal_abstract,2020.2.10,60.26167862538071,
,Fix1,stimuli/School/2.jpg,left,,,,,,,,,,,0,141,141,141,,,,,,,,,,,,,,,,,,,,,,,,,,,,,,,,,,,671.9550526729981,None,671.9550526729981,None,left,1,5.071313460000965,671.9550526729981,None,1,677.0550840299984,None,,,,,,,,,,,,,,,,,,,,,,,,,,,,,,,,,,,,,,,,,,,,,,,,,,,,,,,,,,,2,001,2021_Feb_23_1855,cal_abstract,2020.2.10,60.26167862538071,
,Fix1,stimuli/School/16.jpg,left,,,,,,,,,,,0,142,142,142,,,,,,,,,,,,,,,,,,,,,,,,,,,,,,,,,,,677.8220259629998,None,677.8220259629998,None,right,0,3.7929771580020315,677.8220259629998,None,0,681.6389310829982,None,,,,,,,,,,,,,,,,,,,,,,,,,,,,,,,,,,,,,,,,,,,,,,,,,,,,,,,,,,,2,001,2021_Feb_23_1855,cal_abstract,2020.2.10,60.26167862538071,
,Fix2,stimuli/Dangerous/23.jpg,right,,,,,,,,,,,0,143,143,143,,,,,,,,,,,,,,,,,,,,,,,,,,,,,,,,,,,682.4057878200001,None,682.4057878200001,None,right,1,1.3498875550030789,682.4057878200001,None,1,683.77206725,None,,,,,,,,,,,,,,,,,,,,,,,,,,,,,,,,,,,,,,,,,,,,,,,,,,,,,,,,,,,2,001,2021_Feb_23_1855,cal_abstract,2020.2.10,60.26167862538071,
,Fix2,stimuli/Dangerous/5.jpg,right,,,,,,,,,,,0,144,144,144,,,,,,,,,,,,,,,,,,,,,,,,,,,,,,,,,,,684.5391252429981,None,684.5391252429981,None,right,1,0.9195477520006534,684.5391252429981,None,1,685.4886061129982,None,,,,,,,,,,,,,,,,,,,,,,,,,,,,,,,,,,,,,,,,,,,,,,,,,,,,,,,,,,,2,001,2021_Feb_23_1855,cal_abstract,2020.2.10,60.26167862538071,
,Fix2,stimuli/Dangerous/56.jpg,right,,,,,,,,,,,0,145,145,145,,,,,,,,,,,,,,,,,,,,,,,,,,,,,,,,,,,686.2559237629976,None,686.2559237629976,None,right,1,1.4724038950007525,686.2559237629976,None,1,687.7560556930002,None,,,,,,,,,,,,,,,,,,,,,,,,,,,,,,,,,,,,,,,,,,,,,,,,,,,,,,,,,,,2,001,2021_Feb_23_1855,cal_abstract,2020.2.10,60.26167862538071,
,Cond,stimuli/Small/22.jpg,left,,,,,,,,,,,0,146,146,146,,,,,,,,,,,,,,,,,,,,,,,,,,,,,,,,,,,688.5227263079978,None,688.5227263079978,None,left,1,1.0335802950030484,688.5227263079978,None,1,689.5893861799996,None,,,,,,,,,,,,,,,,,,,,,,,,,,,,,,,,,,,,,,,,,,,,,,,,,,,,,,,,,,,2,001,2021_Feb_23_1855,cal_abstract,2020.2.10,60.26167862538071,
,Fix1,stimuli/School/7.jpg,left,,,,,,,,,,,0,147,147,147,,,,,,,,,,,,,,,,,,,,,,,,,,,,,,,,,,,690.3561650679985,None,690.3561650679985,None,left,1,1.275015422997967,690.3561650679985,None,1,691.6561696179997,None,,,,,,,,,,,,,,,,,,,,,,,,,,,,,,,,,,,,,,,,,,,,,,,,,,,,,,,,,,,2,001,2021_Feb_23_1855,cal_abstract,2020.2.10,60.26167862538071,
,Fix1,stimuli/School/43.jpg,left,,,,,,,,,,,0,148,148,148,,,,,,,,,,,,,,,,,,,,,,,,,,,,,,,,,,,692.4230707799979,None,692.4230707799979,None,right,0,1.7860332130003371,692.4230707799979,None,0,694.238688702997,None,,,,,,,,,,,,,,,,,,,,,,,,,,,,,,,,,,,,,,,,,,,,,,,,,,,,,,,,,,,2,001,2021_Feb_23_1855,cal_abstract,2020.2.10,60.26167862538071,
,Fix2,stimuli/Dangerous/27.jpg,right,,,,,,,,,,,0,149,149,149,,,,,,,,,,,,,,,,,,,,,,,,,,,,,,,,,,,695.0066233729995,None,695.0066233729995,None,right,1,0.8644663199993374,695.0066233729995,None,1,695.8895423649992,None,,,,,,,,,,,,,,,,,,,,,,,,,,,,,,,,,,,,,,,,,,,,,,,,,,,,,,,,,,,2,001,2021_Feb_23_1855,cal_abstract,2020.2.10,60.26167862538071,
,,,,,,,,,,,,,,,,,,,,,,,,,,,,,,,,,,,,,,,,,,,,,,,,,,,,,,,,,,,,,,,,696.6398443299986,None,c,5.502271010002005,696.6398443299986,None,,,,,,,,,,,,,,,,,,,,,,,,,,,,,,,,,,,,,,,,,,,,,,,,,,,,,2,001,2021_Feb_23_1855,cal_abstract,2020.2.10,60.26167862538071,
,,,,,,,,,,,,,,,,,,,,,,,,,,,,,,,,,,,,,,,,,,,,,,,,,,,,,,,,,,,,,,,,,,,,,,702.1735742429992,None,702.1735742429992,None,s,2.275496797999949,702.1735742429992,None,,,,,,,,,,,,,,,,,,,,,,,,,,,,,,,,,,,,,,,,,,,,,2,001,2021_Feb_23_1855,cal_abstract,2020.2.10,60.26167862538071,
,,,,Fix2,stimuli/Healthy/38.jpg,left,,,,,,,,,,,,0,0,0,0,,,,,,,,,,,,,,,,,,,,,,,,,,,,,,,,,,,,,,,,1,,,,,,,,,,,,,,,,,704.5072567779971,None,704.5072567779971,None,left,1,3.513506937000784,704.5072567779971,None,708.0403187649972,None,,,,,,,,,,,,,,,,,,,,,,,,,,,,,,,,,,2,001,2021_Feb_23_1855,cal_abstract,2020.2.10,60.26167862538071,
,,,,Fix1,stimuli/Old/36.jpg,right,,,,,,,,,,,,0,1,1,1,,,,,,,,,,,,,,,,,,,,,,,,,,,,,,,,,,,,,,,,1,,,,,,,,,,,,,,,,,708.8073318379975,None,708.8073318379975,None,right,1,1.7681895819987403,708.8073318379975,None,710.6066790479999,None,,,,,,,,,,,,,,,,,,,,,,,,,,,,,,,,,,2,001,2021_Feb_23_1855,cal_abstract,2020.2.10,60.26167862538071,
,,,,Cond,stimuli/Wealth/56.jpg,left,,,,,,,,,,,,0,2,2,2,,,,,,,,,,,,,,,,,,,,,,,,,,,,,,,,,,,,,,,,1,,,,,,,,,,,,,,,,,711.3743127050002,None,711.3743127050002,None,left,1,2.399204469998949,711.3743127050002,None,713.7910161899999,None,,,,,,,,,,,,,,,,,,,,,,,,,,,,,,,,,,2,001,2021_Feb_23_1855,cal_abstract,2020.2.10,60.26167862538071,
,,,,Fix1,stimuli/Old/58.jpg,right,,,,,,,,,,,,0,3,3,3,,,,,,,,,,,,,,,,,,,,,,,,,,,,,,,,,,,,,,,,0,,,,,,,,,,,,,,,,,714.5578535829991,None,714.5578535829991,None,left,0,2.000324795000779,714.5578535829991,None,716.5910344079966,None,,,,,,,,,,,,,,,,,,,,,,,,,,,,,,,,,,2,001,2021_Feb_23_1855,cal_abstract,2020.2.10,60.26167862538071,
,,,,Fix2,stimuli/Healthy/67.jpg,left,,,,,,,,,,,,0,4,4,4,,,,,,,,,,,,,,,,,,,,,,,,,,,,,,,,,,,,,,,,1,,,,,,,,,,,,,,,,,717.3581359899981,None,717.3581359899981,None,left,1,3.4952888150000945,717.3581359899981,None,720.874860959997,None,,,,,,,,,,,,,,,,,,,,,,,,,,,,,,,,,,2,001,2021_Feb_23_1855,cal_abstract,2020.2.10,60.26167862538071,
,,,,Fix1,stimuli/Old/40.jpg,right,,,,,,,,,,,,0,5,5,5,,,,,,,,,,,,,,,,,,,,,,,,,,,,,,,,,,,,,,,,1,,,,,,,,,,,,,,,,,721.6418065399994,None,721.6418065399994,None,right,1,1.3680397200005245,721.6418065399994,None,723.0418110549981,None,,,,,,,,,,,,,,,,,,,,,,,,,,,,,,,,,,2,001,2021_Feb_23_1855,cal_abstract,2020.2.10,60.26167862538071,
,,,,Fix1,stimuli/Old/55.jpg,right,,,,,,,,,,,,0,6,6,6,,,,,,,,,,,,,,,,,,,,,,,,,,,,,,,,,,,,,,,,0,,,,,,,,,,,,,,,,,723.8083060399986,None,723.8083060399986,None,left,0,2.402375055000448,723.8083060399986,None,726.2406550859996,None,,,,,,,,,,,,,,,,,,,,,,,,,,,,,,,,,,2,001,2021_Feb_23_1855,cal_abstract,2020.2.10,60.26167862538071,
,,,,Fix2,stimuli/Healthy/37.jpg,left,,,,,,,,,,,,0,7,7,7,,,,,,,,,,,,,,,,,,,,,,,,,,,,,,,,,,,,,,,,0,,,,,,,,,,,,,,,,,727.0086416729973,None,727.0086416729973,None,right,0,1.4519790519989328,727.0086416729973,None,728.4920904699975,None,,,,,,,,,,,,,,,,,,,,,,,,,,,,,,,,,,2,001,2021_Feb_23_1855,cal_abstract,2020.2.10,60.26167862538071,
,,,,Fix2,stimuli/Healthy/13.jpg,left,,,,,,,,,,,,0,8,8,8,,,,,,,,,,,,,,,,,,,,,,,,,,,,,,,,,,,,,,,,1,,,,,,,,,,,,,,,,,729.2581283580002,None,729.2581283580002,None,left,1,1.0172265799992601,729.2581283580002,None,730.3087252929981,None,,,,,,,,,,,,,,,,,,,,,,,,,,,,,,,,,,2,001,2021_Feb_23_1855,cal_abstract,2020.2.10,60.26167862538071,
,,,,Fix2,stimuli/Healthy/10.jpg,left,,,,,,,,,,,,0,9,9,9,,,,,,,,,,,,,,,,,,,,,,,,,,,,,,,,,,,,,,,,1,,,,,,,,,,,,,,,,,731.0755888679996,None,731.0755888679996,None,left,1,1.1368919929991534,731.0755888679996,None,732.2413850929988,None,,,,,,,,,,,,,,,,,,,,,,,,,,,,,,,,,,2,001,2021_Feb_23_1855,cal_abstract,2020.2.10,60.26167862538071,
,,,,Cond,stimuli/Wealth/5.jpg,right,,,,,,,,,,,,0,10,10,10,,,,,,,,,,,,,,,,,,,,,,,,,,,,,,,,,,,,,,,,1,,,,,,,,,,,,,,,,,733.0091351949995,None,733.0091351949995,None,right,1,1.3260480429999006,733.0091351949995,None,734.3591008749972,None,,,,,,,,,,,,,,,,,,,,,,,,,,,,,,,,,,2,001,2021_Feb_23_1855,cal_abstract,2020.2.10,60.26167862538071,
,,,,Fix2,stimuli/Healthy/1.jpg,left,,,,,,,,,,,,0,11,11,11,,,,,,,,,,,,,,,,,,,,,,,,,,,,,,,,,,,,,,,,1,,,,,,,,,,,,,,,,,735.1257937199989,None,735.1257937199989,None,left,1,4.8633803029988485,735.1257937199989,None,740.0093886180002,None,,,,,,,,,,,,,,,,,,,,,,,,,,,,,,,,,,2,001,2021_Feb_23_1855,cal_abstract,2020.2.10,60.26167862538071,
,,,,Fix1,stimuli/Old/20.jpg,right,,,,,,,,,,,,0,12,12,12,,,,,,,,,,,,,,,,,,,,,,,,,,,,,,,,,,,,,,,,1,,,,,,,,,,,,,,,,,740.7766116779967,None,740.7766116779967,None,right,1,0.8451588950010773,740.7766116779967,None,741.6429472649979,None,,,,,,,,,,,,,,,,,,,,,,,,,,,,,,,,,,2,001,2021_Feb_23_1855,cal_abstract,2020.2.10,60.26167862538071,
,,,,Fix2,stimuli/Healthy/4.jpg,left,,,,,,,,,,,,0,13,13,13,,,,,,,,,,,,,,,,,,,,,,,,,,,,,,,,,,,,,,,,1,,,,,,,,,,,,,,,,,742.4100524479982,None,742.4100524479982,None,left,1,1.1946950530000322,742.4100524479982,None,743.625460367999,None,,,,,,,,,,,,,,,,,,,,,,,,,,,,,,,,,,2,001,2021_Feb_23_1855,cal_abstract,2020.2.10,60.26167862538071,
,,,,Cond,stimuli/Wealth/41.jpg,right,,,,,,,,,,,,0,14,14,14,,,,,,,,,,,,,,,,,,,,,,,,,,,,,,,,,,,,,,,,0,,,,,,,,,,,,,,,,,744.3932906629998,None,744.3932906629998,None,left,0,2.3340699000000313,744.3932906629998,None,746.760027682998,None,,,,,,,,,,,,,,,,,,,,,,,,,,,,,,,,,,2,001,2021_Feb_23_1855,cal_abstract,2020.2.10,60.26167862538071,
,,,,Cond,stimuli/Wealth/57.jpg,left,,,,,,,,,,,,0,15,15,15,,,,,,,,,,,,,,,,,,,,,,,,,,,,,,,,,,,,,,,,1,,,,,,,,,,,,,,,,,747.5270956280001,None,747.5270956280001,None,left,1,2.1252360269972996,747.5270956280001,None,749.6768842450001,None,,,,,,,,,,,,,,,,,,,,,,,,,,,,,,,,,,2,001,2021_Feb_23_1855,cal_abstract,2020.2.10,60.26167862538071,
,,,,Fix2,stimuli/Healthy/58.jpg,left,,,,,,,,,,,,0,16,16,16,,,,,,,,,,,,,,,,,,,,,,,,,,,,,,,,,,,,,,,,1,,,,,,,,,,,,,,,,,750.442909049998,None,750.442909049998,None,left,1,3.901931460000924,750.442909049998,None,754.3772809900001,None,,,,,,,,,,,,,,,,,,,,,,,,,,,,,,,,,,2,001,2021_Feb_23_1855,cal_abstract,2020.2.10,60.26167862538071,
,,,,Fix1,stimuli/Old/49.jpg,right,,,,,,,,,,,,0,17,17,17,,,,,,,,,,,,,,,,,,,,,,,,,,,,,,,,,,,,,,,,0,,,,,,,,,,,,,,,,,755.1439150999977,None,755.1439150999977,None,left,0,1.7912108980017365,755.1439150999977,None,756.960593328,None,,,,,,,,,,,,,,,,,,,,,,,,,,,,,,,,,,2,001,2021_Feb_23_1855,cal_abstract,2020.2.10,60.26167862538071,
,,,,Fix1,stimuli/Old/29.jpg,right,,,,,,,,,,,,0,18,18,18,,,,,,,,,,,,,,,,,,,,,,,,,,,,,,,,,,,,,,,,0,,,,,,,,,,,,,,,,,757.7277433999989,None,757.7277433999989,None,left,0,6.150784162997297,757.7277433999989,None,763.910181856998,None,,,,,,,,,,,,,,,,,,,,,,,,,,,,,,,,,,2,001,2021_Feb_23_1855,cal_abstract,2020.2.10,60.26167862538071,
,,,,Cond,stimuli/Wealth/26.jpg,left,,,,,,,,,,,,0,19,19,19,,,,,,,,,,,,,,,,,,,,,,,,,,,,,,,,,,,,,,,,1,,,,,,,,,,,,,,,,,764.6764906539975,None,764.6764906539975,None,left,1,1.9270966859985492,764.6764906539975,None,766.628036629998,None,,,,,,,,,,,,,,,,,,,,,,,,,,,,,,,,,,2,001,2021_Feb_23_1855,cal_abstract,2020.2.10,60.26167862538071,
,,,,Fix1,stimuli/Old/37.jpg,right,,,,,,,,,,,,0,20,20,20,,,,,,,,,,,,,,,,,,,,,,,,,,,,,,,,,,,,,,,,1,,,,,,,,,,,,,,,,,767.3949420099998,None,767.3949420099998,None,right,1,1.1205030050005007,767.3949420099998,None,768.5448062029973,None,,,,,,,,,,,,,,,,,,,,,,,,,,,,,,,,,,2,001,2021_Feb_23_1855,cal_abstract,2020.2.10,60.26167862538071,
,,,,Fix2,stimuli/Healthy/42.jpg,left,,,,,,,,,,,,0,21,21,21,,,,,,,,,,,,,,,,,,,,,,,,,,,,,,,,,,,,,,,,1,,,,,,,,,,,,,,,,,769.3114939799998,None,769.3114939799998,None,left,1,5.37446088300203,769.3114939799998,None,774.7119744979973,None,,,,,,,,,,,,,,,,,,,,,,,,,,,,,,,,,,2,001,2021_Feb_23_1855,cal_abstract,2020.2.10,60.26167862538071,
,,,,Fix2,stimuli/Healthy/55.jpg,left,,,,,,,,,,,,0,22,22,22,,,,,,,,,,,,,,,,,,,,,,,,,,,,,,,,,,,,,,,,1,,,,,,,,,,,,,,,,,775.4785252879992,None,775.4785252879992,None,left,1,1.850345679999009,775.4785252879992,None,777.3608750259991,None,,,,,,,,,,,,,,,,,,,,,,,,,,,,,,,,,,2,001,2021_Feb_23_1855,cal_abstract,2020.2.10,60.26167862538071,
,,,,Fix1,stimuli/Old/15.jpg,right,,,,,,,,,,,,0,23,23,23,,,,,,,,,,,,,,,,,,,,,,,,,,,,,,,,,,,,,,,,0,,,,,,,,,,,,,,,,,778.1289599479969,None,778.1289599479969,None,left,0,1.398991322999791,778.1289599479969,None,779.545198222997,None,,,,,,,,,,,,,,,,,,,,,,,,,,,,,,,,,,2,001,2021_Feb_23_1855,cal_abstract,2020.2.10,60.26167862538071,
,,,,Fix2,stimuli/Healthy/8.jpg,left,,,,,,,,,,,,0,24,24,24,,,,,,,,,,,,,,,,,,,,,,,,,,,,,,,,,,,,,,,,1,,,,,,,,,,,,,,,,,780.31240635,None,780.31240635,None,left,1,3.0883435549985734,780.31240635,None,783.4291851399976,None,,,,,,,,,,,,,,,,,,,,,,,,,,,,,,,,,,2,001,2021_Feb_23_1855,cal_abstract,2020.2.10,60.26167862538071,
,,,,Cond,stimuli/Wealth/17.jpg,right,,,,,,,,,,,,0,25,25,25,,,,,,,,,,,,,,,,,,,,,,,,,,,,,,,,,,,,,,,,0,,,,,,,,,,,,,,,,,784.195949732999,None,784.195949732999,None,left,0,2.967098351997265,784.195949732999,None,787.1959367329982,None,,,,,,,,,,,,,,,,,,,,,,,,,,,,,,,,,,2,001,2021_Feb_23_1855,cal_abstract,2020.2.10,60.26167862538071,
,,,,Cond,stimuli/Wealth/27.jpg,left,,,,,,,,,,,,0,26,26,26,,,,,,,,,,,,,,,,,,,,,,,,,,,,,,,,,,,,,,,,0,,,,,,,,,,,,,,,,,787.963013747998,None,787.963013747998,None,right,0,2.0216847080009757,787.963013747998,None,790.0123621729981,None,,,,,,,,,,,,,,,,,,,,,,,,,,,,,,,,,,2,001,2021_Feb_23_1855,cal_abstract,2020.2.10,60.26167862538071,
,,,,Cond,stimuli/Wealth/0.jpg,right,,,,,,,,,,,,0,27,27,27,,,,,,,,,,,,,,,,,,,,,,,,,,,,,,,,,,,,,,,,0,,,,,,,,,,,,,,,,,790.7798790579982,None,790.7798790579982,None,left,0,1.20353395499842,790.7798790579982,None,792.0130268949979,None,,,,,,,,,,,,,,,,,,,,,,,,,,,,,,,,,,2,001,2021_Feb_23_1855,cal_abstract,2020.2.10,60.26167862538071,
,,,,Fix2,stimuli/Healthy/5.jpg,left,,,,,,,,,,,,0,28,28,28,,,,,,,,,,,,,,,,,,,,,,,,,,,,,,,,,,,,,,,,1,,,,,,,,,,,,,,,,,792.7793682829979,None,792.7793682829979,None,left,1,4.02121853999779,792.7793682829979,None,796.8299939549979,None,,,,,,,,,,,,,,,,,,,,,,,,,,,,,,,,,,2,001,2021_Feb_23_1855,cal_abstract,2020.2.10,60.26167862538071,
,,,,Fix2,stimuli/Healthy/29.jpg,left,,,,,,,,,,,,0,29,29,29,,,,,,,,,,,,,,,,,,,,,,,,,,,,,,,,,,,,,,,,1,,,,,,,,,,,,,,,,,797.5969285399988,None,797.5969285399988,None,left,1,5.317125519999536,797.5969285399988,None,802.9471497479972,None,,,,,,,,,,,,,,,,,,,,,,,,,,,,,,,,,,2,001,2021_Feb_23_1855,cal_abstract,2020.2.10,60.26167862538071,
,,,,Cond,stimuli/Wealth/53.jpg,right,,,,,,,,,,,,0,30,30,30,,,,,,,,,,,,,,,,,,,,,,,,,,,,,,,,,,,,,,,,1,,,,,,,,,,,,,,,,,803.7140116929986,None,803.7140116929986,None,right,1,1.8556280820012034,803.7140116929986,None,805.5973993449988,None,,,,,,,,,,,,,,,,,,,,,,,,,,,,,,,,,,2,001,2021_Feb_23_1855,cal_abstract,2020.2.10,60.26167862538071,
,,,,Fix1,stimuli/Old/2.jpg,right,,,,,,,,,,,,0,31,31,31,,,,,,,,,,,,,,,,,,,,,,,,,,,,,,,,,,,,,,,,1,,,,,,,,,,,,,,,,,806.3642891599993,None,806.3642891599993,None,right,1,1.279286780001712,806.3642891599993,None,807.6643207999987,None,,,,,,,,,,,,,,,,,,,,,,,,,,,,,,,,,,2,001,2021_Feb_23_1855,cal_abstract,2020.2.10,60.26167862538071,
,,,,Fix2,stimuli/Healthy/7.jpg,left,,,,,,,,,,,,0,32,32,32,,,,,,,,,,,,,,,,,,,,,,,,,,,,,,,,,,,,,,,,1,,,,,,,,,,,,,,,,,808.4306525229986,None,808.4306525229986,None,left,1,1.119886394997593,808.4306525229986,None,809.5810464429997,None,,,,,,,,,,,,,,,,,,,,,,,,,,,,,,,,,,2,001,2021_Feb_23_1855,cal_abstract,2020.2.10,60.26167862538071,
,,,,Fix1,stimuli/Old/7.jpg,right,,,,,,,,,,,,0,33,33,33,,,,,,,,,,,,,,,,,,,,,,,,,,,,,,,,,,,,,,,,1,,,,,,,,,,,,,,,,,810.3477787099982,None,810.3477787099982,None,right,1,2.7357562299985148,810.3477787099982,None,813.1147163879978,None,,,,,,,,,,,,,,,,,,,,,,,,,,,,,,,,,,2,001,2021_Feb_23_1855,cal_abstract,2020.2.10,60.26167862538071,
,,,,Cond,stimuli/Wealth/10.jpg,left,,,,,,,,,,,,0,34,34,34,,,,,,,,,,,,,,,,,,,,,,,,,,,,,,,,,,,,,,,,0,,,,,,,,,,,,,,,,,813.8815203949998,None,813.8815203949998,None,right,0,1.5714693250010896,813.8815203949998,None,815.4815524149999,None,,,,,,,,,,,,,,,,,,,,,,,,,,,,,,,,,,2,001,2021_Feb_23_1855,cal_abstract,2020.2.10,60.26167862538071,
,,,,Fix2,stimuli/Healthy/68.jpg,left,,,,,,,,,,,,0,35,35,35,,,,,,,,,,,,,,,,,,,,,,,,,,,,,,,,,,,,,,,,1,,,,,,,,,,,,,,,,,816.2479093949987,None,816.2479093949987,None,left,1,4.800853184999141,816.2479093949987,None,821.081620222998,None,,,,,,,,,,,,,,,,,,,,,,,,,,,,,,,,,,2,001,2021_Feb_23_1855,cal_abstract,2020.2.10,60.26167862538071,
,,,,Cond,stimuli/Wealth/24.jpg,right,,,,,,,,,,,,0,36,36,36,,,,,,,,,,,,,,,,,,,,,,,,,,,,,,,,,,,,,,,,0,,,,,,,,,,,,,,,,,821.8485840149988,None,821.8485840149988,None,left,0,1.3258182120007405,821.8485840149988,None,823.1986143429967,None,,,,,,,,,,,,,,,,,,,,,,,,,,,,,,,,,,2,001,2021_Feb_23_1855,cal_abstract,2020.2.10,60.26167862538071,
,,,,Cond,stimuli/Wealth/12.jpg,left,,,,,,,,,,,,0,37,37,37,,,,,,,,,,,,,,,,,,,,,,,,,,,,,,,,,,,,,,,,1,,,,,,,,,,,,,,,,,823.9653973749992,None,823.9653973749992,None,left,1,1.9548671900010959,823.9653973749992,None,825.9487318079991,None,,,,,,,,,,,,,,,,,,,,,,,,,,,,,,,,,,2,001,2021_Feb_23_1855,cal_abstract,2020.2.10,60.26167862538071,
,,,,Fix2,stimuli/Healthy/20.jpg,left,,,,,,,,,,,,0,38,38,38,,,,,,,,,,,,,,,,,,,,,,,,,,,,,,,,,,,,,,,,1,,,,,,,,,,,,,,,,,826.7155960879973,None,826.7155960879973,None,left,1,0.887552752999909,826.7155960879973,None,827.6321667329976,None,,,,,,,,,,,,,,,,,,,,,,,,,,,,,,,,,,2,001,2021_Feb_23_1855,cal_abstract,2020.2.10,60.26167862538071,
,,,,Fix2,stimuli/Healthy/44.jpg,left,,,,,,,,,,,,0,39,39,39,,,,,,,,,,,,,,,,,,,,,,,,,,,,,,,,,,,,,,,,1,,,,,,,,,,,,,,,,,828.399060202999,None,828.399060202999,None,left,1,0.9337978429975919,828.399060202999,None,829.3656076829975,None,,,,,,,,,,,,,,,,,,,,,,,,,,,,,,,,,,2,001,2021_Feb_23_1855,cal_abstract,2020.2.10,60.26167862538071,
,,,,Fix2,stimuli/Healthy/27.jpg,left,,,,,,,,,,,,0,40,40,40,,,,,,,,,,,,,,,,,,,,,,,,,,,,,,,,,,,,,,,,1,,,,,,,,,,,,,,,,,830.1326285229989,None,830.1326285229989,None,left,1,1.0163124130012875,830.1326285229989,None,831.1658036599983,None,,,,,,,,,,,,,,,,,,,,,,,,,,,,,,,,,,2,001,2021_Feb_23_1855,cal_abstract,2020.2.10,60.26167862538071,
,,,,Fix2,stimuli/Healthy/59.jpg,left,,,,,,,,,,,,0,41,41,41,,,,,,,,,,,,,,,,,,,,,,,,,,,,,,,,,,,,,,,,1,,,,,,,,,,,,,,,,,831.9327339629999,None,831.9327339629999,None,left,1,4.046406002002186,831.9327339629999,None,835.9996022829982,None,,,,,,,,,,,,,,,,,,,,,,,,,,,,,,,,,,2,001,2021_Feb_23_1855,cal_abstract,2020.2.10,60.26167862538071,
,,,,Fix1,stimuli/Old/46.jpg,right,,,,,,,,,,,,0,42,42,42,,,,,,,,,,,,,,,,,,,,,,,,,,,,,,,,,,,,,,,,1,,,,,,,,,,,,,,,,,836.7663083549996,None,836.7663083549996,None,right,1,1.4384746249997988,836.7663083549996,None,838.2332397029968,None,,,,,,,,,,,,,,,,,,,,,,,,,,,,,,,,,,2,001,2021_Feb_23_1855,cal_abstract,2020.2.10,60.26167862538071,
,,,,Fix2,stimuli/Healthy/39.jpg,left,,,,,,,,,,,,0,43,43,43,,,,,,,,,,,,,,,,,,,,,,,,,,,,,,,,,,,,,,,,1,,,,,,,,,,,,,,,,,838.9997969449978,None,838.9997969449978,None,left,1,1.0787754349985335,838.9997969449978,None,840.0997828299987,None,,,,,,,,,,,,,,,,,,,,,,,,,,,,,,,,,,2,001,2021_Feb_23_1855,cal_abstract,2020.2.10,60.26167862538071,
,,,,Fix1,stimuli/Old/38.jpg,right,,,,,,,,,,,,0,44,44,44,,,,,,,,,,,,,,,,,,,,,,,,,,,,,,,,,,,,,,,,1,,,,,,,,,,,,,,,,,840.8666464779999,None,840.8666464779999,None,right,1,1.213802010002837,840.8666464779999,None,842.0996487749981,None,,,,,,,,,,,,,,,,,,,,,,,,,,,,,,,,,,2,001,2021_Feb_23_1855,cal_abstract,2020.2.10,60.26167862538071,
,,,,Fix2,stimuli/Healthy/66.jpg,left,,,,,,,,,,,,0,45,45,45,,,,,,,,,,,,,,,,,,,,,,,,,,,,,,,,,,,,,,,,1,,,,,,,,,,,,,,,,,842.8667694999967,None,842.8667694999967,None,left,1,0.9486837750009727,842.8667694999967,None,843.8334369299992,None,,,,,,,,,,,,,,,,,,,,,,,,,,,,,,,,,,2,001,2021_Feb_23_1855,cal_abstract,2020.2.10,60.26167862538071,
,,,,Fix1,stimuli/Old/17.jpg,right,,,,,,,,,,,,0,46,46,46,,,,,,,,,,,,,,,,,,,,,,,,,,,,,,,,,,,,,,,,1,,,,,,,,,,,,,,,,,844.6003544599989,None,844.6003544599989,None,right,1,0.9109778170022764,844.6003544599989,None,845.5335609649992,None,,,,,,,,,,,,,,,,,,,,,,,,,,,,,,,,,,2,001,2021_Feb_23_1855,cal_abstract,2020.2.10,60.26167862538071,
,,,,Fix1,stimuli/Old/14.jpg,right,,,,,,,,,,,,0,47,47,47,,,,,,,,,,,,,,,,,,,,,,,,,,,,,,,,,,,,,,,,1,,,,,,,,,,,,,,,,,846.2998735199981,None,846.2998735199981,None,right,1,19.282931191999523,846.2998735199981,None,865.6011490499986,None,,,,,,,,,,,,,,,,,,,,,,,,,,,,,,,,,,2,001,2021_Feb_23_1855,cal_abstract,2020.2.10,60.26167862538071,
,,,,Cond,stimuli/Wealth/43.jpg,left,,,,,,,,,,,,0,48,48,48,,,,,,,,,,,,,,,,,,,,,,,,,,,,,,,,,,,,,,,,0,,,,,,,,,,,,,,,,,866.3683240879982,None,866.3683240879982,None,right,0,1.0788598870021815,866.3683240879982,None,867.4681317879986,None,,,,,,,,,,,,,,,,,,,,,,,,,,,,,,,,,,2,001,2021_Feb_23_1855,cal_abstract,2020.2.10,60.26167862538071,
,,,,Fix2,stimuli/Healthy/41.jpg,left,,,,,,,,,,,,0,49,49,49,,,,,,,,,,,,,,,,,,,,,,,,,,,,,,,,,,,,,,,,1,,,,,,,,,,,,,,,,,868.2352129549981,None,868.2352129549981,None,left,1,2.9617755450017285,868.2352129549981,None,871.218670602997,None,,,,,,,,,,,,,,,,,,,,,,,,,,,,,,,,,,2,001,2021_Feb_23_1855,cal_abstract,2020.2.10,60.26167862538071,
,,,,Cond,stimuli/Wealth/40.jpg,right,,,,,,,,,,,,0,50,50,50,,,,,,,,,,,,,,,,,,,,,,,,,,,,,,,,,,,,,,,,0,,,,,,,,,,,,,,,,,871.9855099199995,None,871.9855099199995,None,left,0,0.9313868669996737,871.9855099199995,None,872.9353418149985,None,,,,,,,,,,,,,,,,,,,,,,,,,,,,,,,,,,2,001,2021_Feb_23_1855,cal_abstract,2020.2.10,60.26167862538071,
,,,,Fix1,stimuli/Old/43.jpg,right,,,,,,,,,,,,0,51,51,51,,,,,,,,,,,,,,,,,,,,,,,,,,,,,,,,,,,,,,,,1,,,,,,,,,,,,,,,,,873.7022520009996,None,873.7022520009996,None,right,1,1.0524466299975757,873.7022520009996,None,874.7853043879986,None,,,,,,,,,,,,,,,,,,,,,,,,,,,,,,,,,,2,001,2021_Feb_23_1855,cal_abstract,2020.2.10,60.26167862538071,
,,,,Cond,stimuli/Wealth/44.jpg,left,,,,,,,,,,,,0,52,52,52,,,,,,,,,,,,,,,,,,,,,,,,,,,,,,,,,,,,,,,,0,,,,,,,,,,,,,,,,,875.5525270849976,None,875.5525270849976,None,right,0,8.259862253002211,875.5525270849976,None,883.8361152580001,None,,,,,,,,,,,,,,,,,,,,,,,,,,,,,,,,,,2,001,2021_Feb_23_1855,cal_abstract,2020.2.10,60.26167862538071,
,,,,Fix1,stimuli/Old/10.jpg,right,,,,,,,,,,,,0,53,53,53,,,,,,,,,,,,,,,,,,,,,,,,,,,,,,,,,,,,,,,,1,,,,,,,,,,,,,,,,,884.6029252999979,None,884.6029252999979,None,right,1,1.526066805003211,884.6029252999979,None,886.1520539279991,None,,,,,,,,,,,,,,,,,,,,,,,,,,,,,,,,,,2,001,2021_Feb_23_1855,cal_abstract,2020.2.10,60.26167862538071,
,,,,Fix1,stimuli/Old/3.jpg,right,,,,,,,,,,,,0,54,54,54,,,,,,,,,,,,,,,,,,,,,,,,,,,,,,,,,,,,,,,,1,,,,,,,,,,,,,,,,,886.9197694099967,None,886.9197694099967,None,right,1,1.8751356630018563,886.9197694099967,None,888.8195316649981,None,,,,,,,,,,,,,,,,,,,,,,,,,,,,,,,,,,2,001,2021_Feb_23_1855,cal_abstract,2020.2.10,60.26167862538071,
,,,,Cond,stimuli/Wealth/13.jpg,left,,,,,,,,,,,,0,55,55,55,,,,,,,,,,,,,,,,,,,,,,,,,,,,,,,,,,,,,,,,1,,,,,,,,,,,,,,,,,889.5866712279967,None,889.5866712279967,None,left,1,3.1709806800026854,889.5866712279967,None,892.7866732199982,None,,,,,,,,,,,,,,,,,,,,,,,,,,,,,,,,,,2,001,2021_Feb_23_1855,cal_abstract,2020.2.10,60.26167862538071,
,,,,Cond,stimuli/Wealth/14.jpg,right,,,,,,,,,,,,0,56,56,56,,,,,,,,,,,,,,,,,,,,,,,,,,,,,,,,,,,,,,,,0,,,,,,,,,,,,,,,,,893.5530928549997,None,893.5530928549997,None,left,0,1.0244067500025267,893.5530928549997,None,894.6033216129981,None,,,,,,,,,,,,,,,,,,,,,,,,,,,,,,,,,,2,001,2021_Feb_23_1855,cal_abstract,2020.2.10,60.26167862538071,
,,,,Fix2,stimuli/Healthy/65.jpg,left,,,,,,,,,,,,0,57,57,57,,,,,,,,,,,,,,,,,,,,,,,,,,,,,,,,,,,,,,,,1,,,,,,,,,,,,,,,,,895.3703259299982,None,895.3703259299982,None,left,1,1.1380889850006497,895.3703259299982,None,896.5370040899979,None,,,,,,,,,,,,,,,,,,,,,,,,,,,,,,,,,,2,001,2021_Feb_23_1855,cal_abstract,2020.2.10,60.26167862538071,
,,,,Cond,stimuli/Wealth/45.jpg,right,,,,,,,,,,,,0,58,58,58,,,,,,,,,,,,,,,,,,,,,,,,,,,,,,,,,,,,,,,,0,,,,,,,,,,,,,,,,,897.3038298629981,None,897.3038298629981,None,left,0,2.110397697000735,897.3038298629981,None,899.4369430529987,None,,,,,,,,,,,,,,,,,,,,,,,,,,,,,,,,,,2,001,2021_Feb_23_1855,cal_abstract,2020.2.10,60.26167862538071,
,,,,Cond,stimuli/Wealth/31.jpg,left,,,,,,,,,,,,0,59,59,59,,,,,,,,,,,,,,,,,,,,,,,,,,,,,,,,,,,,,,,,0,,,,,,,,,,,,,,,,,900.2036724529971,None,900.2036724529971,None,right,0,35.004332028001954,900.2036724529971,None,935.2390742729986,None,,,,,,,,,,,,,,,,,,,,,,,,,,,,,,,,,,2,001,2021_Feb_23_1855,cal_abstract,2020.2.10,60.26167862538071,
,,,,Cond,stimuli/Wealth/46.jpg,right,,,,,,,,,,,,0,60,60,60,,,,,,,,,,,,,,,,,,,,,,,,,,,,,,,,,,,,,,,,0,,,,,,,,,,,,,,,,,936.0065557399976,None,936.0065557399976,None,left,0,0.799162133000209,936.0065557399976,None,936.8229663799975,None,,,,,,,,,,,,,,,,,,,,,,,,,,,,,,,,,,2,001,2021_Feb_23_1855,cal_abstract,2020.2.10,60.26167862538071,
,,,,Cond,stimuli/Wealth/52.jpg,left,,,,,,,,,,,,0,61,61,61,,,,,,,,,,,,,,,,,,,,,,,,,,,,,,,,,,,,,,,,0,,,,,,,,,,,,,,,,,937.5899045749975,None,937.5899045749975,None,right,0,1.5425581070012413,937.5899045749975,None,939.1560800859988,None,,,,,,,,,,,,,,,,,,,,,,,,,,,,,,,,,,2,001,2021_Feb_23_1855,cal_abstract,2020.2.10,60.26167862538071,
,,,,Fix2,stimuli/Healthy/51.jpg,left,,,,,,,,,,,,0,62,62,62,,,,,,,,,,,,,,,,,,,,,,,,,,,,,,,,,,,,,,,,1,,,,,,,,,,,,,,,,,939.9234735399987,None,939.9234735399987,None,left,1,0.7578790099978505,939.9234735399987,None,940.7066805699978,None,,,,,,,,,,,,,,,,,,,,,,,,,,,,,,,,,,2,001,2021_Feb_23_1855,cal_abstract,2020.2.10,60.26167862538071,
,,,,Fix2,stimuli/Healthy/32.jpg,left,,,,,,,,,,,,0,63,63,63,,,,,,,,,,,,,,,,,,,,,,,,,,,,,,,,,,,,,,,,1,,,,,,,,,,,,,,,,,941.4735696600001,None,941.4735696600001,None,left,1,0.7286835419981799,941.4735696600001,None,942.2234984999996,None,,,,,,,,,,,,,,,,,,,,,,,,,,,,,,,,,,2,001,2021_Feb_23_1855,cal_abstract,2020.2.10,60.26167862538071,
,,,,Fix2,stimuli/Healthy/45.jpg,left,,,,,,,,,,,,0,64,64,64,,,,,,,,,,,,,,,,,,,,,,,,,,,,,,,,,,,,,,,,1,,,,,,,,,,,,,,,,,942.9903656279967,None,942.9903656279967,None,left,1,0.7649526229979529,942.9903656279967,None,943.773654605,None,,,,,,,,,,,,,,,,,,,,,,,,,,,,,,,,,,2,001,2021_Feb_23_1855,cal_abstract,2020.2.10,60.26167862538071,
,,,,Cond,stimuli/Wealth/19.jpg,right,,,,,,,,,,,,0,65,65,65,,,,,,,,,,,,,,,,,,,,,,,,,,,,,,,,,,,,,,,,1,,,,,,,,,,,,,,,,,944.5400210499974,None,944.5400210499974,None,right,1,0.9280323250022775,944.5400210499974,None,945.4903825449983,None,,,,,,,,,,,,,,,,,,,,,,,,,,,,,,,,,,2,001,2021_Feb_23_1855,cal_abstract,2020.2.10,60.26167862538071,
,,,,Fix1,stimuli/Old/8.jpg,right,,,,,,,,,,,,0,66,66,66,,,,,,,,,,,,,,,,,,,,,,,,,,,,,,,,,,,,,,,,1,,,,,,,,,,,,,,,,,946.2571227879998,None,946.2571227879998,None,right,1,1.25168499999927,946.2571227879998,None,947.5405083099977,None,,,,,,,,,,,,,,,,,,,,,,,,,,,,,,,,,,2,001,2021_Feb_23_1855,cal_abstract,2020.2.10,60.26167862538071,
,,,,Cond,stimuli/Wealth/22.jpg,left,,,,,,,,,,,,0,67,67,67,,,,,,,,,,,,,,,,,,,,,,,,,,,,,,,,,,,,,,,,0,,,,,,,,,,,,,,,,,948.3073509249989,None,948.3073509249989,None,right,0,69.41188859699832,948.3073509249989,None,1017.7453007129989,None,,,,,,,,,,,,,,,,,,,,,,,,,,,,,,,,,,2,001,2021_Feb_23_1855,cal_abstract,2020.2.10,60.26167862538071,
,,,,Cond,stimuli/Wealth/11.jpg,right,,,,,,,,,,,,0,68,68,68,,,,,,,,,,,,,,,,,,,,,,,,,,,,,,,,,,,,,,,,0,,,,,,,,,,,,,,,,,1018.5122607229969,None,1018.5122607229969,None,left,0,1.508783384997514,1018.5122607229969,None,1020.045705343,None,,,,,,,,,,,,,,,,,,,,,,,,,,,,,,,,,,2,001,2021_Feb_23_1855,cal_abstract,2020.2.10,60.26167862538071,
,,,,Fix2,stimuli/Healthy/43.jpg,left,,,,,,,,,,,,0,69,69,69,,,,,,,,,,,,,,,,,,,,,,,,,,,,,,,,,,,,,,,,1,,,,,,,,,,,,,,,,,1020.812367489998,None,1020.812367489998,None,left,1,0.6616011350015469,1020.812367489998,None,1021.4954685880002,None,,,,,,,,,,,,,,,,,,,,,,,,,,,,,,,,,,2,001,2021_Feb_23_1855,cal_abstract,2020.2.10,60.26167862538071,
,,,,Fix2,stimuli/Healthy/6.jpg,left,,,,,,,,,,,,0,70,70,70,,,,,,,,,,,,,,,,,,,,,,,,,,,,,,,,,,,,,,,,1,,,,,,,,,,,,,,,,,1022.2623494279978,None,1022.2623494279978,None,left,1,1.0565048479984398,1022.2623494279978,None,1023.3457124699999,None,,,,,,,,,,,,,,,,,,,,,,,,,,,,,,,,,,2,001,2021_Feb_23_1855,cal_abstract,2020.2.10,60.26167862538071,
,,,,Fix1,stimuli/Old/21.jpg,right,,,,,,,,,,,,0,71,71,71,,,,,,,,,,,,,,,,,,,,,,,,,,,,,,,,,,,,,,,,1,,,,,,,,,,,,,,,,,1024.1121289479997,None,1024.1121289479997,None,right,1,1.8455533550004475,1024.1121289479997,None,1025.9791606929975,None,,,,,,,,,,,,,,,,,,,,,,,,,,,,,,,,,,2,001,2021_Feb_23_1855,cal_abstract,2020.2.10,60.26167862538071,
,,,,Fix2,stimuli/Healthy/9.jpg,left,,,,,,,,,,,,0,72,72,72,,,,,,,,,,,,,,,,,,,,,,,,,,,,,,,,,,,,,,,,1,,,,,,,,,,,,,,,,,1026.7462000749983,None,1026.7462000749983,None,left,1,0.8103633199971227,1026.7462000749983,None,1027.5794956499994,None,,,,,,,,,,,,,,,,,,,,,,,,,,,,,,,,,,2,001,2021_Feb_23_1855,cal_abstract,2020.2.10,60.26167862538071,
,,,,Cond,stimuli/Wealth/51.jpg,right,,,,,,,,,,,,0,73,73,73,,,,,,,,,,,,,,,,,,,,,,,,,,,,,,,,,,,,,,,,1,,,,,,,,,,,,,,,,,1028.3461792849994,None,1028.3461792849994,None,right,1,1.3952320800017333,1028.3461792849994,None,1029.762684309997,None,,,,,,,,,,,,,,,,,,,,,,,,,,,,,,,,,,2,001,2021_Feb_23_1855,cal_abstract,2020.2.10,60.26167862538071,
,,,,Fix1,stimuli/Old/54.jpg,right,,,,,,,,,,,,0,74,74,74,,,,,,,,,,,,,,,,,,,,,,,,,,,,,,,,,,,,,,,,0,,,,,,,,,,,,,,,,,1030.5296677499973,None,1030.5296677499973,None,left,0,1.302463637002802,1030.5296677499973,None,1031.8629337349994,None,,,,,,,,,,,,,,,,,,,,,,,,,,,,,,,,,,2,001,2021_Feb_23_1855,cal_abstract,2020.2.10,60.26167862538071,
,,,,Fix2,stimuli/Healthy/53.jpg,left,,,,,,,,,,,,0,75,75,75,,,,,,,,,,,,,,,,,,,,,,,,,,,,,,,,,,,,,,,,1,,,,,,,,,,,,,,,,,1032.6298221949983,None,1032.6298221949983,None,left,1,0.6453752000015811,1032.6298221949983,None,1033.2963696829975,None,,,,,,,,,,,,,,,,,,,,,,,,,,,,,,,,,,2,001,2021_Feb_23_1855,cal_abstract,2020.2.10,60.26167862538071,
,,,,Cond,stimuli/Wealth/49.jpg,right,,,,,,,,,,,,0,76,76,76,,,,,,,,,,,,,,,,,,,,,,,,,,,,,,,,,,,,,,,,1,,,,,,,,,,,,,,,,,1034.0632898999975,None,1034.0632898999975,None,right,1,0.9907569450006122,1034.0632898999975,None,1035.0799286099973,None,,,,,,,,,,,,,,,,,,,,,,,,,,,,,,,,,,2,001,2021_Feb_23_1855,cal_abstract,2020.2.10,60.26167862538071,
,,,,Fix1,stimuli/Old/0.jpg,right,,,,,,,,,,,,0,77,77,77,,,,,,,,,,,,,,,,,,,,,,,,,,,,,,,,,,,,,,,,1,,,,,,,,,,,,,,,,,1035.846619394997,None,1035.846619394997,None,right,1,1.4713710450014332,1035.846619394997,None,1037.346704839998,None,,,,,,,,,,,,,,,,,,,,,,,,,,,,,,,,,,2,001,2021_Feb_23_1855,cal_abstract,2020.2.10,60.26167862538071,
,,,,Cond,stimuli/Wealth/28.jpg,left,,,,,,,,,,,,0,78,78,78,,,,,,,,,,,,,,,,,,,,,,,,,,,,,,,,,,,,,,,,1,,,,,,,,,,,,,,,,,1038.113647449998,None,1038.113647449998,None,left,1,1.1720809570033452,1038.113647449998,None,1039.3134445929973,None,,,,,,,,,,,,,,,,,,,,,,,,,,,,,,,,,,2,001,2021_Feb_23_1855,cal_abstract,2020.2.10,60.26167862538071,
,,,,Cond,stimuli/Wealth/20.jpg,right,,,,,,,,,,,,0,79,79,79,,,,,,,,,,,,,,,,,,,,,,,,,,,,,,,,,,,,,,,,1,,,,,,,,,,,,,,,,,1040.080462212998,None,1040.080462212998,None,right,1,5.690451940001367,1040.080462212998,None,1045.7974514199996,None,,,,,,,,,,,,,,,,,,,,,,,,,,,,,,,,,,2,001,2021_Feb_23_1855,cal_abstract,2020.2.10,60.26167862538071,
,,,,Fix1,stimuli/Old/47.jpg,right,,,,,,,,,,,,0,80,80,80,,,,,,,,,,,,,,,,,,,,,,,,,,,,,,,,,,,,,,,,1,,,,,,,,,,,,,,,,,1046.5641969949975,None,1046.5641969949975,None,right,1,1.5351037019972864,1046.5641969949975,None,1048.1310383249984,None,,,,,,,,,,,,,,,,,,,,,,,,,,,,,,,,,,2,001,2021_Feb_23_1855,cal_abstract,2020.2.10,60.26167862538071,
,,,,Cond,stimuli/Wealth/55.jpg,left,,,,,,,,,,,,0,81,81,81,,,,,,,,,,,,,,,,,,,,,,,,,,,,,,,,,,,,,,,,0,,,,,,,,,,,,,,,,,1048.897788629998,None,1048.897788629998,None,right,0,2.1894450449981377,1048.897788629998,None,1051.1138220499997,None,,,,,,,,,,,,,,,,,,,,,,,,,,,,,,,,,,2,001,2021_Feb_23_1855,cal_abstract,2020.2.10,60.26167862538071,
,,,,Cond,stimuli/Wealth/37.jpg,right,,,,,,,,,,,,0,82,82,82,,,,,,,,,,,,,,,,,,,,,,,,,,,,,,,,,,,,,,,,0,,,,,,,,,,,,,,,,,1051.8812048449981,None,1051.8812048449981,None,left,0,2.231883390002622,1051.8812048449981,None,1054.1313878099972,None,,,,,,,,,,,,,,,,,,,,,,,,,,,,,,,,,,2,001,2021_Feb_23_1855,cal_abstract,2020.2.10,60.26167862538071,
,,,,Fix2,stimuli/Healthy/3.jpg,left,,,,,,,,,,,,0,83,83,83,,,,,,,,,,,,,,,,,,,,,,,,,,,,,,,,,,,,,,,,1,,,,,,,,,,,,,,,,,1054.898016482999,None,1054.898016482999,None,left,1,0.6007817899990187,1054.898016482999,None,1055.531390674998,None,,,,,,,,,,,,,,,,,,,,,,,,,,,,,,,,,,2,001,2021_Feb_23_1855,cal_abstract,2020.2.10,60.26167862538071,
,,,,Fix1,stimuli/Old/16.jpg,right,,,,,,,,,,,,0,84,84,84,,,,,,,,,,,,,,,,,,,,,,,,,,,,,,,,,,,,,,,,0,,,,,,,,,,,,,,,,,1056.2982365129974,None,1056.2982365129974,None,left,0,1.2976887350014294,1056.2982365129974,None,1057.6147743399997,None,,,,,,,,,,,,,,,,,,,,,,,,,,,,,,,,,,2,001,2021_Feb_23_1855,cal_abstract,2020.2.10,60.26167862538071,
,,,,Fix2,stimuli/Healthy/33.jpg,left,,,,,,,,,,,,0,85,85,85,,,,,,,,,,,,,,,,,,,,,,,,,,,,,,,,,,,,,,,,1,,,,,,,,,,,,,,,,,1058.3819572079992,None,1058.3819572079992,None,left,1,0.6917653199998313,1058.3819572079992,None,1059.098396262998,None,,,,,,,,,,,,,,,,,,,,,,,,,,,,,,,,,,2,001,2021_Feb_23_1855,cal_abstract,2020.2.10,60.26167862538071,
,,,,Fix1,stimuli/Old/48.jpg,right,,,,,,,,,,,,0,86,86,86,,,,,,,,,,,,,,,,,,,,,,,,,,,,,,,,,,,,,,,,1,,,,,,,,,,,,,,,,,1059.864728532997,None,1059.864728532997,None,right,1,0.8687492179997207,1059.864728532997,None,1060.7650185450002,None,,,,,,,,,,,,,,,,,,,,,,,,,,,,,,,,,,2,001,2021_Feb_23_1855,cal_abstract,2020.2.10,60.26167862538071,
,,,,Fix1,stimuli/Old/39.jpg,right,,,,,,,,,,,,0,87,87,87,,,,,,,,,,,,,,,,,,,,,,,,,,,,,,,,,,,,,,,,1,,,,,,,,,,,,,,,,,1061.5318417849994,None,1061.5318417849994,None,right,1,1.1065354970014596,1061.5318417849994,None,1062.665185179998,None,,,,,,,,,,,,,,,,,,,,,,,,,,,,,,,,,,2,001,2021_Feb_23_1855,cal_abstract,2020.2.10,60.26167862538071,
,,,,Fix1,stimuli/Old/18.jpg,right,,,,,,,,,,,,0,88,88,88,,,,,,,,,,,,,,,,,,,,,,,,,,,,,,,,,,,,,,,,1,,,,,,,,,,,,,,,,,1063.4327767579998,None,1063.4327767579998,None,right,1,0.8906172099996184,1063.4327767579998,None,1064.3485765730002,None,,,,,,,,,,,,,,,,,,,,,,,,,,,,,,,,,,2,001,2021_Feb_23_1855,cal_abstract,2020.2.10,60.26167862538071,
,,,,Fix1,stimuli/Old/13.jpg,right,,,,,,,,,,,,0,89,89,89,,,,,,,,,,,,,,,,,,,,,,,,,,,,,,,,,,,,,,,,1,,,,,,,,,,,,,,,,,1065.1152907179967,None,1065.1152907179967,None,right,1,1.0558114849991398,1065.1152907179967,None,1066.1990101249976,None,,,,,,,,,,,,,,,,,,,,,,,,,,,,,,,,,,2,001,2021_Feb_23_1855,cal_abstract,2020.2.10,60.26167862538071,
,,,,Fix2,stimuli/Healthy/57.jpg,left,,,,,,,,,,,,0,90,90,90,,,,,,,,,,,,,,,,,,,,,,,,,,,,,,,,,,,,,,,,1,,,,,,,,,,,,,,,,,1066.9655838399995,None,1066.9655838399995,None,left,1,2.2384656149988587,1066.9655838399995,None,1069.2322738229996,None,,,,,,,,,,,,,,,,,,,,,,,,,,,,,,,,,,2,001,2021_Feb_23_1855,cal_abstract,2020.2.10,60.26167862538071,
,,,,Fix2,stimuli/Healthy/19.jpg,left,,,,,,,,,,,,0,91,91,91,,,,,,,,,,,,,,,,,,,,,,,,,,,,,,,,,,,,,,,,1,,,,,,,,,,,,,,,,,1069.9985731749985,None,1069.9985731749985,None,left,1,2.373248928000976,1069.9985731749985,None,1072.3988553279996,None,,,,,,,,,,,,,,,,,,,,,,,,,,,,,,,,,,2,001,2021_Feb_23_1855,cal_abstract,2020.2.10,60.26167862538071,
,,,,Fix2,stimuli/Healthy/21.jpg,left,,,,,,,,,,,,0,92,92,92,,,,,,,,,,,,,,,,,,,,,,,,,,,,,,,,,,,,,,,,1,,,,,,,,,,,,,,,,,1073.1660192949967,None,1073.1660192949967,None,left,1,0.8117688199999975,1073.1660192949967,None,1073.9992560779974,None,,,,,,,,,,,,,,,,,,,,,,,,,,,,,,,,,,2,001,2021_Feb_23_1855,cal_abstract,2020.2.10,60.26167862538071,
,,,,Fix2,stimuli/Healthy/0.jpg,left,,,,,,,,,,,,0,93,93,93,,,,,,,,,,,,,,,,,,,,,,,,,,,,,,,,,,,,,,,,1,,,,,,,,,,,,,,,,,1074.7660237049968,None,1074.7660237049968,None,left,1,1.2174854629993206,1074.7660237049968,None,1076.0160813429975,None,,,,,,,,,,,,,,,,,,,,,,,,,,,,,,,,,,2,001,2021_Feb_23_1855,cal_abstract,2020.2.10,60.26167862538071,
,,,,Fix1,stimuli/Old/35.jpg,right,,,,,,,,,,,,0,94,94,94,,,,,,,,,,,,,,,,,,,,,,,,,,,,,,,,,,,,,,,,1,,,,,,,,,,,,,,,,,1076.7982759179977,None,1076.7982759179977,None,right,1,2.10205387699898,1076.7982759179977,None,1078.932830857997,None,,,,,,,,,,,,,,,,,,,,,,,,,,,,,,,,,,2,001,2021_Feb_23_1855,cal_abstract,2020.2.10,60.26167862538071,
,,,,Fix2,stimuli/Healthy/56.jpg,left,,,,,,,,,,,,0,95,95,95,,,,,,,,,,,,,,,,,,,,,,,,,,,,,,,,,,,,,,,,1,,,,,,,,,,,,,,,,,1079.699284684997,None,1079.699284684997,None,left,1,1.0100900500001444,1079.699284684997,None,1080.7329913649992,None,,,,,,,,,,,,,,,,,,,,,,,,,,,,,,,,,,2,001,2021_Feb_23_1855,cal_abstract,2020.2.10,60.26167862538071,
,,,,Cond,stimuli/Wealth/35.jpg,right,,,,,,,,,,,,0,96,96,96,,,,,,,,,,,,,,,,,,,,,,,,,,,,,,,,,,,,,,,,0,,,,,,,,,,,,,,,,,1081.4998466179968,None,1081.4998466179968,None,left,0,2.741287872999237,1081.4998466179968,None,1084.2665908149975,None,,,,,,,,,,,,,,,,,,,,,,,,,,,,,,,,,,2,001,2021_Feb_23_1855,cal_abstract,2020.2.10,60.26167862538071,
,,,,Fix1,stimuli/Old/23.jpg,right,,,,,,,,,,,,0,97,97,97,,,,,,,,,,,,,,,,,,,,,,,,,,,,,,,,,,,,,,,,0,,,,,,,,,,,,,,,,,1085.03294972,None,1085.03294972,None,left,0,1.432074635002209,1085.03294972,None,1086.4832912829988,None,,,,,,,,,,,,,,,,,,,,,,,,,,,,,,,,,,2,001,2021_Feb_23_1855,cal_abstract,2020.2.10,60.26167862538071,
,,,,Cond,stimuli/Wealth/42.jpg,left,,,,,,,,,,,,0,98,98,98,,,,,,,,,,,,,,,,,,,,,,,,,,,,,,,,,,,,,,,,1,,,,,,,,,,,,,,,,,1087.2504887929972,None,1087.2504887929972,None,left,1,1.8423344619986892,1087.2504887929972,None,1089.1154564169992,None,,,,,,,,,,,,,,,,,,,,,,,,,,,,,,,,,,2,001,2021_Feb_23_1855,cal_abstract,2020.2.10,60.26167862538071,
,,,,Fix2,stimuli/Healthy/24.jpg,left,,,,,,,,,,,,0,99,99,99,,,,,,,,,,,,,,,,,,,,,,,,,,,,,,,,,,,,,,,,1,,,,,,,,,,,,,,,,,1089.883645269998,None,1089.883645269998,None,left,1,1.4059126069987542,1089.883645269998,None,1091.3170457729975,None,,,,,,,,,,,,,,,,,,,,,,,,,,,,,,,,,,2,001,2021_Feb_23_1855,cal_abstract,2020.2.10,60.26167862538071,
,,,,Cond,stimuli/Wealth/54.jpg,right,,,,,,,,,,,,0,100,100,100,,,,,,,,,,,,,,,,,,,,,,,,,,,,,,,,,,,,,,,,1,,,,,,,,,,,,,,,,,1092.084055979998,None,1092.084055979998,None,right,1,2.059373644999141,1092.084055979998,None,1094.1668837849975,None,,,,,,,,,,,,,,,,,,,,,,,,,,,,,,,,,,2,001,2021_Feb_23_1855,cal_abstract,2020.2.10,60.26167862538071,
,,,,Cond,stimuli/Wealth/4.jpg,left,,,,,,,,,,,,0,101,101,101,,,,,,,,,,,,,,,,,,,,,,,,,,,,,,,,,,,,,,,,0,,,,,,,,,,,,,,,,,1094.93415827,None,1094.93415827,None,right,0,1.1282392219982285,1094.93415827,None,1096.0841159800002,None,,,,,,,,,,,,,,,,,,,,,,,,,,,,,,,,,,2,001,2021_Feb_23_1855,cal_abstract,2020.2.10,60.26167862538071,
,,,,Fix2,stimuli/Healthy/48.jpg,left,,,,,,,,,,,,0,102,102,102,,,,,,,,,,,,,,,,,,,,,,,,,,,,,,,,,,,,,,,,1,,,,,,,,,,,,,,,,,1096.8511503599984,None,1096.8511503599984,None,left,1,0.9482908449972456,1096.8511503599984,None,1097.8176020829997,None,,,,,,,,,,,,,,,,,,,,,,,,,,,,,,,,,,2,001,2021_Feb_23_1855,cal_abstract,2020.2.10,60.26167862538071,
,,,,Fix2,stimuli/Healthy/15.jpg,left,,,,,,,,,,,,0,103,103,103,,,,,,,,,,,,,,,,,,,,,,,,,,,,,,,,,,,,,,,,1,,,,,,,,,,,,,,,,,1098.5840066879973,None,1098.5840066879973,None,left,1,0.7621650449982553,1098.5840066879973,None,1099.3678897849968,None,,,,,,,,,,,,,,,,,,,,,,,,,,,,,,,,,,2,001,2021_Feb_23_1855,cal_abstract,2020.2.10,60.26167862538071,
,,,,Cond,stimuli/Wealth/38.jpg,right,,,,,,,,,,,,0,104,104,104,,,,,,,,,,,,,,,,,,,,,,,,,,,,,,,,,,,,,,,,1,,,,,,,,,,,,,,,,,1100.134449467998,None,1100.134449467998,None,right,1,2.874055069998576,1100.134449467998,None,1103.0346531029973,None,,,,,,,,,,,,,,,,,,,,,,,,,,,,,,,,,,2,001,2021_Feb_23_1855,cal_abstract,2020.2.10,60.26167862538071,
,,,,Cond,stimuli/Wealth/21.jpg,left,,,,,,,,,,,,0,105,105,105,,,,,,,,,,,,,,,,,,,,,,,,,,,,,,,,,,,,,,,,0,,,,,,,,,,,,,,,,,1103.8014273329973,None,1103.8014273329973,None,right,0,0.8278097119982704,1103.8014273329973,None,1104.651154834999,None,,,,,,,,,,,,,,,,,,,,,,,,,,,,,,,,,,2,001,2021_Feb_23_1855,cal_abstract,2020.2.10,60.26167862538071,
,,,,Fix2,stimuli/Healthy/36.jpg,left,,,,,,,,,,,,0,106,106,106,,,,,,,,,,,,,,,,,,,,,,,,,,,,,,,,,,,,,,,,1,,,,,,,,,,,,,,,,,1105.4181083080002,None,1105.4181083080002,None,left,1,3.850647819999722,1105.4181083080002,None,1109.3014468929978,None,,,,,,,,,,,,,,,,,,,,,,,,,,,,,,,,,,2,001,2021_Feb_23_1855,cal_abstract,2020.2.10,60.26167862538071,
,,,,Fix1,stimuli/Old/12.jpg,right,,,,,,,,,,,,0,107,107,107,,,,,,,,,,,,,,,,,,,,,,,,,,,,,,,,,,,,,,,,1,,,,,,,,,,,,,,,,,1110.0687272999967,None,1110.0687272999967,None,right,1,1.4218283749978582,1110.0687272999967,None,1111.5185754279992,None,,,,,,,,,,,,,,,,,,,,,,,,,,,,,,,,,,2,001,2021_Feb_23_1855,cal_abstract,2020.2.10,60.26167862538071,
,,,,Fix2,stimuli/Healthy/69.jpg,left,,,,,,,,,,,,0,108,108,108,,,,,,,,,,,,,,,,,,,,,,,,,,,,,,,,,,,,,,,,1,,,,,,,,,,,,,,,,,1112.2850707079997,None,1112.2850707079997,None,left,1,2.179158449998795,1112.2850707079997,None,1114.4854164600001,None,,,,,,,,,,,,,,,,,,,,,,,,,,,,,,,,,,2,001,2021_Feb_23_1855,cal_abstract,2020.2.10,60.26167862538071,
,,,,Fix2,stimuli/Healthy/30.jpg,left,,,,,,,,,,,,0,109,109,109,,,,,,,,,,,,,,,,,,,,,,,,,,,,,,,,,,,,,,,,1,,,,,,,,,,,,,,,,,1115.2522455899998,None,1115.2522455899998,None,left,1,0.8360534329985967,1115.2522455899998,None,1116.1190638749977,None,,,,,,,,,,,,,,,,,,,,,,,,,,,,,,,,,,2,001,2021_Feb_23_1855,cal_abstract,2020.2.10,60.26167862538071,
,,,,Cond,stimuli/Wealth/23.jpg,right,,,,,,,,,,,,0,110,110,110,,,,,,,,,,,,,,,,,,,,,,,,,,,,,,,,,,,,,,,,1,,,,,,,,,,,,,,,,,1116.8856013679979,None,1116.8856013679979,None,right,1,1.8403260919985769,1116.8856013679979,None,1118.7509862449988,None,,,,,,,,,,,,,,,,,,,,,,,,,,,,,,,,,,2,001,2021_Feb_23_1855,cal_abstract,2020.2.10,60.26167862538071,
,,,,Fix1,stimuli/Old/9.jpg,right,,,,,,,,,,,,0,111,111,111,,,,,,,,,,,,,,,,,,,,,,,,,,,,,,,,,,,,,,,,1,,,,,,,,,,,,,,,,,1119.5192296449968,None,1119.5192296449968,None,right,1,1.9597299199995177,1119.5192296449968,None,1121.502480269999,None,,,,,,,,,,,,,,,,,,,,,,,,,,,,,,,,,,2,001,2021_Feb_23_1855,cal_abstract,2020.2.10,60.26167862538071,
,,,,Fix1,stimuli/Old/50.jpg,right,,,,,,,,,,,,0,112,112,112,,,,,,,,,,,,,,,,,,,,,,,,,,,,,,,,,,,,,,,,1,,,,,,,,,,,,,,,,,1122.269322688,None,1122.269322688,None,right,1,1.2343419549979444,1122.269322688,None,1123.535950595,None,,,,,,,,,,,,,,,,,,,,,,,,,,,,,,,,,,2,001,2021_Feb_23_1855,cal_abstract,2020.2.10,60.26167862538071,
,,,,Fix1,stimuli/Old/5.jpg,right,,,,,,,,,,,,0,113,113,113,,,,,,,,,,,,,,,,,,,,,,,,,,,,,,,,,,,,,,,,1,,,,,,,,,,,,,,,,,1124.302406642997,None,1124.302406642997,None,right,1,0.7893106820010871,1124.302406642997,None,1125.1193932499991,None,,,,,,,,,,,,,,,,,,,,,,,,,,,,,,,,,,2,001,2021_Feb_23_1855,cal_abstract,2020.2.10,60.26167862538071,
,,,,Fix1,stimuli/Old/57.jpg,right,,,,,,,,,,,,0,114,114,114,,,,,,,,,,,,,,,,,,,,,,,,,,,,,,,,,,,,,,,,1,,,,,,,,,,,,,,,,,1125.886237552997,None,1125.886237552997,None,right,1,0.8352287849993445,1125.886237552997,None,1126.7528698399983,None,,,,,,,,,,,,,,,,,,,,,,,,,,,,,,,,,,2,001,2021_Feb_23_1855,cal_abstract,2020.2.10,60.26167862538071,
,,,,Cond,stimuli/Wealth/15.jpg,left,,,,,,,,,,,,0,115,115,115,,,,,,,,,,,,,,,,,,,,,,,,,,,,,,,,,,,,,,,,1,,,,,,,,,,,,,,,,,1127.5198087249992,None,1127.5198087249992,None,left,1,1.5915639790000569,1127.5198087249992,None,1129.1350094499976,None,,,,,,,,,,,,,,,,,,,,,,,,,,,,,,,,,,2,001,2021_Feb_23_1855,cal_abstract,2020.2.10,60.26167862538071,
,,,,Fix1,stimuli/Old/26.jpg,right,,,,,,,,,,,,0,116,116,116,,,,,,,,,,,,,,,,,,,,,,,,,,,,,,,,,,,,,,,,1,,,,,,,,,,,,,,,,,1129.9022159279994,None,1129.9022159279994,None,right,1,1.2480528900014178,1129.9022159279994,None,1131.1697763949996,None,,,,,,,,,,,,,,,,,,,,,,,,,,,,,,,,,,2,001,2021_Feb_23_1855,cal_abstract,2020.2.10,60.26167862538071,
,,,,Cond,stimuli/Wealth/47.jpg,left,,,,,,,,,,,,0,117,117,117,,,,,,,,,,,,,,,,,,,,,,,,,,,,,,,,,,,,,,,,1,,,,,,,,,,,,,,,,,1131.9367618449978,None,1131.9367618449978,None,left,1,1.6172759600012796,1131.9367618449978,None,1133.5867791780001,None,,,,,,,,,,,,,,,,,,,,,,,,,,,,,,,,,,2,001,2021_Feb_23_1855,cal_abstract,2020.2.10,60.26167862538071,
,,,,Cond,stimuli/Wealth/30.jpg,right,,,,,,,,,,,,0,118,118,118,,,,,,,,,,,,,,,,,,,,,,,,,,,,,,,,,,,,,,,,1,,,,,,,,,,,,,,,,,1134.3534079679994,None,1134.3534079679994,None,right,1,1.3324998979987868,1134.3534079679994,None,1135.7190173529998,None,,,,,,,,,,,,,,,,,,,,,,,,,,,,,,,,,,2,001,2021_Feb_23_1855,cal_abstract,2020.2.10,60.26167862538071,
,,,,Cond,stimuli/Wealth/36.jpg,left,,,,,,,,,,,,0,119,119,119,,,,,,,,,,,,,,,,,,,,,,,,,,,,,,,,,,,,,,,,1,,,,,,,,,,,,,,,,,1136.4870328549987,None,1136.4870328549987,None,left,1,4.115258820002055,1136.4870328549987,None,1140.6203219799972,None,,,,,,,,,,,,,,,,,,,,,,,,,,,,,,,,,,2,001,2021_Feb_23_1855,cal_abstract,2020.2.10,60.26167862538071,
,,,,Fix1,stimuli/Old/11.jpg,right,,,,,,,,,,,,0,120,120,120,,,,,,,,,,,,,,,,,,,,,,,,,,,,,,,,,,,,,,,,0,,,,,,,,,,,,,,,,,1141.3872463679982,None,1141.3872463679982,None,left,0,1.257165189999796,1141.3872463679982,None,1142.6698274379996,None,,,,,,,,,,,,,,,,,,,,,,,,,,,,,,,,,,2,001,2021_Feb_23_1855,cal_abstract,2020.2.10,60.26167862538071,
,,,,Cond,stimuli/Wealth/34.jpg,left,,,,,,,,,,,,0,121,121,121,,,,,,,,,,,,,,,,,,,,,,,,,,,,,,,,,,,,,,,,1,,,,,,,,,,,,,,,,,1143.4374719329971,None,1143.4374719329971,None,left,1,0.6408718669990776,1143.4374719329971,None,1144.1035734549987,None,,,,,,,,,,,,,,,,,,,,,,,,,,,,,,,,,,2,001,2021_Feb_23_1855,cal_abstract,2020.2.10,60.26167862538071,
,,,,Fix2,stimuli/Healthy/46.jpg,left,,,,,,,,,,,,0,122,122,122,,,,,,,,,,,,,,,,,,,,,,,,,,,,,,,,,,,,,,,,1,,,,,,,,,,,,,,,,,1144.8710824299997,None,1144.8710824299997,None,left,1,3.560930939998798,1144.8710824299997,None,1148.454348952997,None,,,,,,,,,,,,,,,,,,,,,,,,,,,,,,,,,,2,001,2021_Feb_23_1855,cal_abstract,2020.2.10,60.26167862538071,
,,,,Fix1,stimuli/Old/32.jpg,right,,,,,,,,,,,,0,123,123,123,,,,,,,,,,,,,,,,,,,,,,,,,,,,,,,,,,,,,,,,1,,,,,,,,,,,,,,,,,1149.2210016049976,None,1149.2210016049976,None,right,1,0.8205815949986572,1149.2210016049976,None,1150.0711870979976,None,,,,,,,,,,,,,,,,,,,,,,,,,,,,,,,,,,2,001,2021_Feb_23_1855,cal_abstract,2020.2.10,60.26167862538071,
,,,,Cond,stimuli/Wealth/48.jpg,left,,,,,,,,,,,,0,124,124,124,,,,,,,,,,,,,,,,,,,,,,,,,,,,,,,,,,,,,,,,1,,,,,,,,,,,,,,,,,1150.8380683279975,None,1150.8380683279975,None,left,1,1.763272385000164,1150.8380683279975,None,1152.6212485999968,None,,,,,,,,,,,,,,,,,,,,,,,,,,,,,,,,,,2,001,2021_Feb_23_1855,cal_abstract,2020.2.10,60.26167862538071,
,,,,Fix1,stimuli/Old/27.jpg,right,,,,,,,,,,,,0,125,125,125,,,,,,,,,,,,,,,,,,,,,,,,,,,,,,,,,,,,,,,,1,,,,,,,,,,,,,,,,,1153.3880185179987,None,1153.3880185179987,None,right,1,1.2493439569989278,1153.3880185179987,None,1154.6540312399993,None,,,,,,,,,,,,,,,,,,,,,,,,,,,,,,,,,,2,001,2021_Feb_23_1855,cal_abstract,2020.2.10,60.26167862538071,
,,,,Cond,stimuli/Wealth/29.jpg,left,,,,,,,,,,,,0,126,126,126,,,,,,,,,,,,,,,,,,,,,,,,,,,,,,,,,,,,,,,,1,,,,,,,,,,,,,,,,,1155.4215973350001,None,1155.4215973350001,None,left,1,1.017428707000363,1155.4215973350001,None,1156.4715519149977,None,,,,,,,,,,,,,,,,,,,,,,,,,,,,,,,,,,2,001,2021_Feb_23_1855,cal_abstract,2020.2.10,60.26167862538071,
,,,,Fix1,stimuli/Old/42.jpg,right,,,,,,,,,,,,0,127,127,127,,,,,,,,,,,,,,,,,,,,,,,,,,,,,,,,,,,,,,,,1,,,,,,,,,,,,,,,,,1157.2384608199973,None,1157.2384608199973,None,right,1,0.7954528800000844,1157.2384608199973,None,1158.0549165079974,None,,,,,,,,,,,,,,,,,,,,,,,,,,,,,,,,,,2,001,2021_Feb_23_1855,cal_abstract,2020.2.10,60.26167862538071,
,,,,Fix1,stimuli/Old/4.jpg,right,,,,,,,,,,,,0,128,128,128,,,,,,,,,,,,,,,,,,,,,,,,,,,,,,,,,,,,,,,,1,,,,,,,,,,,,,,,,,1158.8218413029972,None,1158.8218413029972,None,right,1,0.9761199630011106,1158.8218413029972,None,1159.821821442998,None,,,,,,,,,,,,,,,,,,,,,,,,,,,,,,,,,,2,001,2021_Feb_23_1855,cal_abstract,2020.2.10,60.26167862538071,
,,,,Fix2,stimuli/Healthy/31.jpg,left,,,,,,,,,,,,0,129,129,129,,,,,,,,,,,,,,,,,,,,,,,,,,,,,,,,,,,,,,,,0,,,,,,,,,,,,,,,,,1160.5886780999972,None,1160.5886780999972,None,right,0,1.5810980150017713,1160.5886780999972,None,1162.1887166729975,None,,,,,,,,,,,,,,,,,,,,,,,,,,,,,,,,,,2,001,2021_Feb_23_1855,cal_abstract,2020.2.10,60.26167862538071,
,,,,Cond,stimuli/Wealth/18.jpg,right,,,,,,,,,,,,0,130,130,130,,,,,,,,,,,,,,,,,,,,,,,,,,,,,,,,,,,,,,,,0,,,,,,,,,,,,,,,,,1162.955483767997,None,1162.955483767997,None,left,0,1.1252058079990093,1162.955483767997,None,1164.104746314999,None,,,,,,,,,,,,,,,,,,,,,,,,,,,,,,,,,,2,001,2021_Feb_23_1855,cal_abstract,2020.2.10,60.26167862538071,
,,,,Fix2,stimuli/Healthy/52.jpg,left,,,,,,,,,,,,0,131,131,131,,,,,,,,,,,,,,,,,,,,,,,,,,,,,,,,,,,,,,,,1,,,,,,,,,,,,,,,,,1164.8721357299983,None,1164.8721357299983,None,left,1,0.8094669570018596,1164.8721357299983,None,1165.7056708349992,None,,,,,,,,,,,,,,,,,,,,,,,,,,,,,,,,,,2,001,2021_Feb_23_1855,cal_abstract,2020.2.10,60.26167862538071,
,,,,Fix1,stimuli/Old/52.jpg,right,,,,,,,,,,,,0,132,132,132,,,,,,,,,,,,,,,,,,,,,,,,,,,,,,,,,,,,,,,,1,,,,,,,,,,,,,,,,,1166.472467255,None,1166.472467255,None,right,1,5.90609068699996,1166.472467255,None,1172.4061529479986,None,,,,,,,,,,,,,,,,,,,,,,,,,,,,,,,,,,2,001,2021_Feb_23_1855,cal_abstract,2020.2.10,60.26167862538071,
