Text,Block1Type,Block1Stim,Block1Corr,Block2Type,Block2Stim,Block2Corr,Block3Type,Block3Stim,Block3Corr,Instruction_loop.thisRepN,Instruction_loop.thisTrialN,Instruction_loop.thisN,Instruction_loop.thisIndex,Block1_loop.thisRepN,Block1_loop.thisTrialN,Block1_loop.thisN,Block1_loop.thisIndex,Block2_loop.thisRepN,Block2_loop.thisTrialN,Block2_loop.thisN,Block2_loop.thisIndex,Block3_loop.thisRepN,Block3_loop.thisTrialN,Block3_loop.thisN,Block3_loop.thisIndex,welcome_text1.started,welcome_text1.stopped,welcome_text2.started,welcome_text2.stopped,welcome_text3.started,welcome_text3.stopped,welcome_resp.keys,welcome_resp.rt,welcome_resp.started,welcome_resp.stopped,instruct_text1.started,instruct_text1.stopped,instruct_text2.started,instruct_text2.stopped,instruct_resp1.keys,instruct_resp1.rt,instruct_resp1.started,instruct_resp1.stopped,start_text1.started,start_text1.stopped,start_text2.started,start_text2.stopped,start_resp1.keys,start_resp1.rt,start_resp1.started,start_resp1.stopped,image1.started,image1.stopped,text1.started,text1.stopped,key_resp1.keys,key_resp1.corr,key_resp1.rt,key_resp1.started,key_resp1.stopped,trialCorrect,feedback_text1.started,feedback_text1.stopped,break_text1.started,break_text1.stopped,break_resp1.keys,break_resp1.rt,break_resp1.started,break_resp1.stopped,start_text3.started,start_text3.stopped,start_text4.started,start_text4.stopped,start_resp2.keys,start_resp2.rt,start_resp2.started,start_resp2.stopped,image2.started,image2.stopped,text2.started,text2.stopped,key_resp2.keys,key_resp2.corr,key_resp2.rt,key_resp2.started,key_resp2.stopped,feedback_text2.started,feedback_text2.stopped,break_text2.started,break_text2.stopped,break_resp2.keys,break_resp2.rt,break_resp2.started,break_resp2.stopped,start_text5.started,start_text5.stopped,start_text6.started,start_text6.stopped,start_resp3.keys,start_resp3.rt,start_resp3.started,start_resp3.stopped,image3.started,image3.stopped,text3.started,text3.stopped,key_resp3.keys,key_resp3.corr,key_resp3.rt,key_resp3.started,key_resp3.stopped,feedback_text3.started,feedback_text3.stopped,end_text1.started,end_text1.stopped,end_text2.started,end_text2.stopped,end_resp.keys,end_resp.rt,end_resp.started,end_resp.stopped,participant,session,date,expName,psychopyVersion,frameRate,
,,,,,,,,,,,,,,,,,,,,,,,,,,37.2153470000012,None,37.2153470000012,None,37.2153470000012,None,return,8.136767300000429,37.2153470000012,None,,,,,,,,,,,,,,,,,,,,,,,,,,,,,,,,,,,,,,,,,,,,,,,,,,,,,,,,,,,,,,,,,,,,,,,,,,,,,,,,,,,,,,,0,001,2021_Feb_19_1507,cal_abstract,2020.2.10,60.00564053037298,
"You will be presented with a series of images. It is your job to learn, through trial and error, whether the “Left” or “Right” arrow key should be pressed for each image.",,,,,,,,,,0,0,0,0,,,,,,,,,,,,,,,,,,,,,,,45.52444050000122,None,45.52444050000122,None,return,29.588700500000414,45.52444050000122,None,,,,,,,,,,,,,,,,,,,,,,,,,,,,,,,,,,,,,,,,,,,,,,,,,,,,,,,,,,,,,,,,,,,,,,,,,,,,,,,0,001,2021_Feb_19_1507,cal_abstract,2020.2.10,60.00564053037298,
"For some images you should always press “Left”, and for others you should always press “Right” arrow key.",,,,,,,,,,0,1,1,1,,,,,,,,,,,,,,,,,,,,,,,75.15300530000059,None,75.15300530000059,None,return,5.270110800000111,75.15300530000059,None,,,,,,,,,,,,,,,,,,,,,,,,,,,,,,,,,,,,,,,,,,,,,,,,,,,,,,,,,,,,,,,,,,,,,,,,,,,,,,,0,001,2021_Feb_19_1507,cal_abstract,2020.2.10,60.00564053037298,
"Some images are special: the correct response is the opposite of the preceding correct response. That is, if the previous correct answer was “Left” then the correct response would now be “Right”.",,,,,,,,,,0,2,2,2,,,,,,,,,,,,,,,,,,,,,,,80.48649570000089,None,80.48649570000089,None,return,9.166678200001115,80.48649570000089,None,,,,,,,,,,,,,,,,,,,,,,,,,,,,,,,,,,,,,,,,,,,,,,,,,,,,,,,,,,,,,,,,,,,,,,,,,,,,,,,0,001,2021_Feb_19_1507,cal_abstract,2020.2.10,60.00564053037298,
"After each response, you will be told whether you got the item correct or incorrect.",,,,,,,,,,0,3,3,3,,,,,,,,,,,,,,,,,,,,,,,89.68910219999998,None,89.68910219999998,None,return,2.9541339999996126,89.68910219999998,None,,,,,,,,,,,,,,,,,,,,,,,,,,,,,,,,,,,,,,,,,,,,,,,,,,,,,,,,,,,,,,,,,,,,,,,,,,,,,,,0,001,2021_Feb_19_1507,cal_abstract,2020.2.10,60.00564053037298,
"You can take as long as you like on each image, but the task will not continue until you press the “Left” or “Right” arrow key.",,,,,,,,,,0,4,4,4,,,,,,,,,,,,,,,,,,,,,,,92.67914779999955,None,92.67914779999955,None,return,5.594016300001385,92.67914779999955,None,,,,,,,,,,,,,,,,,,,,,,,,,,,,,,,,,,,,,,,,,,,,,,,,,,,,,,,,,,,,,,,,,,,,,,,,,,,,,,,0,001,2021_Feb_19_1507,cal_abstract,2020.2.10,60.00564053037298,
"The experiment will have three blocks, each block will take approximately 10 minutes to complete.",,,,,,,,,,0,5,5,5,,,,,,,,,,,,,,,,,,,,,,,98.31536190000043,None,98.31536190000043,None,return,3.3479917000004207,98.31536190000043,None,,,,,,,,,,,,,,,,,,,,,,,,,,,,,,,,,,,,,,,,,,,,,,,,,,,,,,,,,,,,,,,,,,,,,,,,,,,,,,,0,001,2021_Feb_19_1507,cal_abstract,2020.2.10,60.00564053037298,
,,,,,,,,,,,,,,,,,,,,,,,,,,,,,,,,,,,,,,,,,,,,101.68162690000099,None,101.68162690000099,None,s,2.403160800000478,101.68162690000099,None,,,,,,,,,,,,,,,,,,,,,,,,,,,,,,,,,,,,,,,,,,,,,,,,,,,,,,,,,,,,,,,,,,,,,,,0,001,2021_Feb_19_1507,cal_abstract,2020.2.10,60.00564053037298,
,Fix2,stimuli/Dangerous/15.jpg,right,,,,,,,,,,,0,0,0,0,,,,,,,,,,,,,,,,,,,,,,,,,,,,,,,,,,,104.26751200000035,None,104.26751200000035,None,right,1,2.6572142000004533,104.26751200000035,None,1,107.02496299999984,None,,,,,,,,,,,,,,,,,,,,,,,,,,,,,,,,,,,,,,,,,,,,,,,,,,,,,,,,,,,0,001,2021_Feb_19_1507,cal_abstract,2020.2.10,60.00564053037298,
,Fix1,stimuli/School/26.jpg,left,,,,,,,,,,,0,1,1,1,,,,,,,,,,,,,,,,,,,,,,,,,,,,,,,,,,,107.82882700000118,None,107.82882700000118,None,left,1,2.7756757000006473,107.82882700000118,None,1,110.62527620000037,None,,,,,,,,,,,,,,,,,,,,,,,,,,,,,,,,,,,,,,,,,,,,,,,,,,,,,,,,,,,0,001,2021_Feb_19_1507,cal_abstract,2020.2.10,60.00564053037298,
,Cond,stimuli/Small/10.jpg,right,,,,,,,,,,,0,2,2,2,,,,,,,,,,,,,,,,,,,,,,,,,,,,,,,,,,,111.49474200000077,None,111.49474200000077,None,left,0,2.280411900001127,111.49474200000077,None,0,113.83450050000101,None,,,,,,,,,,,,,,,,,,,,,,,,,,,,,,,,,,,,,,,,,,,,,,,,,,,,,,,,,,,0,001,2021_Feb_19_1507,cal_abstract,2020.2.10,60.00564053037298,
,Fix1,stimuli/School/25.jpg,left,,,,,,,,,,,0,3,3,3,,,,,,,,,,,,,,,,,,,,,,,,,,,,,,,,,,,114.62873260000015,None,114.62873260000015,None,right,0,3.986236100001406,114.62873260000015,None,0,118.64686660000007,None,,,,,,,,,,,,,,,,,,,,,,,,,,,,,,,,,,,,,,,,,,,,,,,,,,,,,,,,,,,0,001,2021_Feb_19_1507,cal_abstract,2020.2.10,60.00564053037298,
,Fix2,stimuli/Dangerous/30.jpg,right,,,,,,,,,,,0,4,4,4,,,,,,,,,,,,,,,,,,,,,,,,,,,,,,,,,,,119.46420770000077,None,119.46420770000077,None,right,1,1.5705572000006214,119.46420770000077,None,1,121.07809420000012,None,,,,,,,,,,,,,,,,,,,,,,,,,,,,,,,,,,,,,,,,,,,,,,,,,,,,,,,,,,,0,001,2021_Feb_19_1507,cal_abstract,2020.2.10,60.00564053037298,
,Fix2,stimuli/Dangerous/42.jpg,right,,,,,,,,,,,0,5,5,5,,,,,,,,,,,,,,,,,,,,,,,,,,,,,,,,,,,121.8793910000004,None,121.8793910000004,None,right,1,1.1252690000001166,121.8793910000004,None,1,123.03324340000108,None,,,,,,,,,,,,,,,,,,,,,,,,,,,,,,,,,,,,,,,,,,,,,,,,,,,,,,,,,,,0,001,2021_Feb_19_1507,cal_abstract,2020.2.10,60.00564053037298,
,Cond,stimuli/Small/4.jpg,left,,,,,,,,,,,0,6,6,6,,,,,,,,,,,,,,,,,,,,,,,,,,,,,,,,,,,123.85681079999995,None,123.85681079999995,None,left,1,3.607945900001141,123.85681079999995,None,1,127.48684049999974,None,,,,,,,,,,,,,,,,,,,,,,,,,,,,,,,,,,,,,,,,,,,,,,,,,,,,,,,,,,,0,001,2021_Feb_19_1507,cal_abstract,2020.2.10,60.00564053037298,
,Fix2,stimuli/Dangerous/44.jpg,right,,,,,,,,,,,0,7,7,7,,,,,,,,,,,,,,,,,,,,,,,,,,,,,,,,,,,128.2990716000004,None,128.2990716000004,None,right,1,1.7455534000000625,128.2990716000004,None,1,130.0720996,None,,,,,,,,,,,,,,,,,,,,,,,,,,,,,,,,,,,,,,,,,,,,,,,,,,,,,,,,,,,0,001,2021_Feb_19_1507,cal_abstract,2020.2.10,60.00564053037298,
,Cond,stimuli/Small/39.jpg,left,,,,,,,,,,,0,8,8,8,,,,,,,,,,,,,,,,,,,,,,,,,,,,,,,,,,,130.90761500000008,None,130.90761500000008,None,left,1,2.267264400001295,130.90761500000008,None,1,133.2059879999997,None,,,,,,,,,,,,,,,,,,,,,,,,,,,,,,,,,,,,,,,,,,,,,,,,,,,,,,,,,,,0,001,2021_Feb_19_1507,cal_abstract,2020.2.10,60.00564053037298,
,Fix2,stimuli/Dangerous/34.jpg,right,,,,,,,,,,,0,9,9,9,,,,,,,,,,,,,,,,,,,,,,,,,,,,,,,,,,,134.0458673000012,None,134.0458673000012,None,right,1,1.0690349000014976,134.0458673000012,None,1,135.14226419999977,None,,,,,,,,,,,,,,,,,,,,,,,,,,,,,,,,,,,,,,,,,,,,,,,,,,,,,,,,,,,0,001,2021_Feb_19_1507,cal_abstract,2020.2.10,60.00564053037298,
,Cond,stimuli/Small/13.jpg,left,,,,,,,,,,,0,10,10,10,,,,,,,,,,,,,,,,,,,,,,,,,,,,,,,,,,,135.95026300000063,None,135.95026300000063,None,right,0,2.7043393999992986,135.95026300000063,None,0,138.6950297000003,None,,,,,,,,,,,,,,,,,,,,,,,,,,,,,,,,,,,,,,,,,,,,,,,,,,,,,,,,,,,0,001,2021_Feb_19_1507,cal_abstract,2020.2.10,60.00564053037298,
,Fix2,stimuli/Dangerous/6.jpg,right,,,,,,,,,,,0,11,11,11,,,,,,,,,,,,,,,,,,,,,,,,,,,,,,,,,,,139.48986239999977,None,139.48986239999977,None,right,1,1.9352933000009216,139.48986239999977,None,1,141.46261849999973,None,,,,,,,,,,,,,,,,,,,,,,,,,,,,,,,,,,,,,,,,,,,,,,,,,,,,,,,,,,,0,001,2021_Feb_19_1507,cal_abstract,2020.2.10,60.00564053037298,
,Fix2,stimuli/Dangerous/24.jpg,right,,,,,,,,,,,0,12,12,12,,,,,,,,,,,,,,,,,,,,,,,,,,,,,,,,,,,142.23904080000102,None,142.23904080000102,None,right,1,1.1068678999999975,142.23904080000102,None,1,143.3795055999999,None,,,,,,,,,,,,,,,,,,,,,,,,,,,,,,,,,,,,,,,,,,,,,,,,,,,,,,,,,,,0,001,2021_Feb_19_1507,cal_abstract,2020.2.10,60.00564053037298,
,Cond,stimuli/Small/20.jpg,left,,,,,,,,,,,0,13,13,13,,,,,,,,,,,,,,,,,,,,,,,,,,,,,,,,,,,144.18378160000066,None,144.18378160000066,None,left,1,4.441970600000786,144.18378160000066,None,1,148.65162890000101,None,,,,,,,,,,,,,,,,,,,,,,,,,,,,,,,,,,,,,,,,,,,,,,,,,,,,,,,,,,,0,001,2021_Feb_19_1507,cal_abstract,2020.2.10,60.00564053037298,
,Fix2,stimuli/Dangerous/33.jpg,right,,,,,,,,,,,0,14,14,14,,,,,,,,,,,,,,,,,,,,,,,,,,,,,,,,,,,149.4612842000006,None,149.4612842000006,None,right,1,7.294744499999069,149.4612842000006,None,1,156.78888410000036,None,,,,,,,,,,,,,,,,,,,,,,,,,,,,,,,,,,,,,,,,,,,,,,,,,,,,,,,,,,,0,001,2021_Feb_19_1507,cal_abstract,2020.2.10,60.00564053037298,
,Cond,stimuli/Small/2.jpg,left,,,,,,,,,,,0,15,15,15,,,,,,,,,,,,,,,,,,,,,,,,,,,,,,,,,,,157.60101589999977,None,157.60101589999977,None,left,1,5.094887799999924,157.60101589999977,None,1,162.7255253000003,None,,,,,,,,,,,,,,,,,,,,,,,,,,,,,,,,,,,,,,,,,,,,,,,,,,,,,,,,,,,0,001,2021_Feb_19_1507,cal_abstract,2020.2.10,60.00564053037298,
,Fix2,stimuli/Dangerous/41.jpg,right,,,,,,,,,,,0,16,16,16,,,,,,,,,,,,,,,,,,,,,,,,,,,,,,,,,,,163.51829350000116,None,163.51829350000116,None,right,1,1.1873500999990938,163.51829350000116,None,1,164.7276526000005,None,,,,,,,,,,,,,,,,,,,,,,,,,,,,,,,,,,,,,,,,,,,,,,,,,,,,,,,,,,,0,001,2021_Feb_19_1507,cal_abstract,2020.2.10,60.00564053037298,
,Fix1,stimuli/School/56.jpg,left,,,,,,,,,,,0,17,17,17,,,,,,,,,,,,,,,,,,,,,,,,,,,,,,,,,,,165.5629955000004,None,165.5629955000004,None,left,1,2.0827853999999206,165.5629955000004,None,1,167.66399850000016,None,,,,,,,,,,,,,,,,,,,,,,,,,,,,,,,,,,,,,,,,,,,,,,,,,,,,,,,,,,,0,001,2021_Feb_19_1507,cal_abstract,2020.2.10,60.00564053037298,
,Cond,stimuli/Small/57.jpg,right,,,,,,,,,,,0,18,18,18,,,,,,,,,,,,,,,,,,,,,,,,,,,,,,,,,,,168.49523510000108,None,168.49523510000108,None,right,1,1.150777200000448,168.49523510000108,None,1,169.66542049999953,None,,,,,,,,,,,,,,,,,,,,,,,,,,,,,,,,,,,,,,,,,,,,,,,,,,,,,,,,,,,0,001,2021_Feb_19_1507,cal_abstract,2020.2.10,60.00564053037298,
,Fix2,stimuli/Dangerous/58.jpg,right,,,,,,,,,,,0,19,19,19,,,,,,,,,,,,,,,,,,,,,,,,,,,,,,,,,,,170.46860659999948,None,170.46860659999948,None,right,1,1.3071923999996216,170.46860659999948,None,1,171.79987559999972,None,,,,,,,,,,,,,,,,,,,,,,,,,,,,,,,,,,,,,,,,,,,,,,,,,,,,,,,,,,,0,001,2021_Feb_19_1507,cal_abstract,2020.2.10,60.00564053037298,
,Cond,stimuli/Small/58.jpg,left,,,,,,,,,,,0,20,20,20,,,,,,,,,,,,,,,,,,,,,,,,,,,,,,,,,,,172.60447080000085,None,172.60447080000085,None,left,1,1.741324500000701,172.60447080000085,None,1,174.368930300001,None,,,,,,,,,,,,,,,,,,,,,,,,,,,,,,,,,,,,,,,,,,,,,,,,,,,,,,,,,,,0,001,2021_Feb_19_1507,cal_abstract,2020.2.10,60.00564053037298,
,Fix2,stimuli/Dangerous/20.jpg,right,,,,,,,,,,,0,21,21,21,,,,,,,,,,,,,,,,,,,,,,,,,,,,,,,,,,,175.18776830000024,None,175.18776830000024,None,right,1,1.1482224999999744,175.18776830000024,None,1,176.36894940000093,None,,,,,,,,,,,,,,,,,,,,,,,,,,,,,,,,,,,,,,,,,,,,,,,,,,,,,,,,,,,0,001,2021_Feb_19_1507,cal_abstract,2020.2.10,60.00564053037298,
,Cond,stimuli/Small/29.jpg,left,,,,,,,,,,,0,22,22,22,,,,,,,,,,,,,,,,,,,,,,,,,,,,,,,,,,,177.17259019999983,None,177.17259019999983,None,left,1,2.1333753999988403,177.17259019999983,None,1,179.3385247999995,None,,,,,,,,,,,,,,,,,,,,,,,,,,,,,,,,,,,,,,,,,,,,,,,,,,,,,,,,,,,0,001,2021_Feb_19_1507,cal_abstract,2020.2.10,60.00564053037298,
,Fix2,stimuli/Dangerous/46.jpg,right,,,,,,,,,,,0,23,23,23,,,,,,,,,,,,,,,,,,,,,,,,,,,,,,,,,,,180.17828519999966,None,180.17828519999966,None,right,1,1.6278548999998748,180.17828519999966,None,1,181.82680679999976,None,,,,,,,,,,,,,,,,,,,,,,,,,,,,,,,,,,,,,,,,,,,,,,,,,,,,,,,,,,,0,001,2021_Feb_19_1507,cal_abstract,2020.2.10,60.00564053037298,
,Fix1,stimuli/School/10.jpg,left,,,,,,,,,,,0,24,24,24,,,,,,,,,,,,,,,,,,,,,,,,,,,,,,,,,,,182.63120590000108,None,182.63120590000108,None,left,1,1.3444072999991477,182.63120590000108,None,1,184.0079192000012,None,,,,,,,,,,,,,,,,,,,,,,,,,,,,,,,,,,,,,,,,,,,,,,,,,,,,,,,,,,,0,001,2021_Feb_19_1507,cal_abstract,2020.2.10,60.00564053037298,
,Fix1,stimuli/School/50.jpg,left,,,,,,,,,,,0,25,25,25,,,,,,,,,,,,,,,,,,,,,,,,,,,,,,,,,,,184.82634859999962,None,184.82634859999962,None,left,1,5.0903937999992195,184.82634859999962,None,1,189.94435909999993,None,,,,,,,,,,,,,,,,,,,,,,,,,,,,,,,,,,,,,,,,,,,,,,,,,,,,,,,,,,,0,001,2021_Feb_19_1507,cal_abstract,2020.2.10,60.00564053037298,
,Cond,stimuli/Small/19.jpg,right,,,,,,,,,,,0,26,26,26,,,,,,,,,,,,,,,,,,,,,,,,,,,,,,,,,,,190.73634459999994,None,190.73634459999994,None,right,1,3.5008344999987457,190.73634459999994,None,1,194.2654091000004,None,,,,,,,,,,,,,,,,,,,,,,,,,,,,,,,,,,,,,,,,,,,,,,,,,,,,,,,,,,,0,001,2021_Feb_19_1507,cal_abstract,2020.2.10,60.00564053037298,
,Fix1,stimuli/School/28.jpg,left,,,,,,,,,,,0,27,27,27,,,,,,,,,,,,,,,,,,,,,,,,,,,,,,,,,,,195.0663600000007,None,195.0663600000007,None,left,1,5.580585199999405,195.0663600000007,None,1,200.66915850000078,None,,,,,,,,,,,,,,,,,,,,,,,,,,,,,,,,,,,,,,,,,,,,,,,,,,,,,,,,,,,0,001,2021_Feb_19_1507,cal_abstract,2020.2.10,60.00564053037298,
,Fix1,stimuli/School/35.jpg,left,,,,,,,,,,,0,28,28,28,,,,,,,,,,,,,,,,,,,,,,,,,,,,,,,,,,,201.49130960000002,None,201.49130960000002,None,left,1,4.895400899999004,201.49130960000002,None,1,206.40803489999962,None,,,,,,,,,,,,,,,,,,,,,,,,,,,,,,,,,,,,,,,,,,,,,,,,,,,,,,,,,,,0,001,2021_Feb_19_1507,cal_abstract,2020.2.10,60.00564053037298,
,Fix1,stimuli/School/39.jpg,left,,,,,,,,,,,0,29,29,29,,,,,,,,,,,,,,,,,,,,,,,,,,,,,,,,,,,207.2129144999999,None,207.2129144999999,None,left,1,2.5340355999996973,207.2129144999999,None,1,209.77583810000033,None,,,,,,,,,,,,,,,,,,,,,,,,,,,,,,,,,,,,,,,,,,,,,,,,,,,,,,,,,,,0,001,2021_Feb_19_1507,cal_abstract,2020.2.10,60.00564053037298,
,Cond,stimuli/Small/42.jpg,right,,,,,,,,,,,0,30,30,30,,,,,,,,,,,,,,,,,,,,,,,,,,,,,,,,,,,210.57982170000105,None,210.57982170000105,None,right,1,1.2569230000008247,210.57982170000105,None,1,211.8616589000012,None,,,,,,,,,,,,,,,,,,,,,,,,,,,,,,,,,,,,,,,,,,,,,,,,,,,,,,,,,,,0,001,2021_Feb_19_1507,cal_abstract,2020.2.10,60.00564053037298,
,Fix2,stimuli/Dangerous/31.jpg,right,,,,,,,,,,,0,31,31,31,,,,,,,,,,,,,,,,,,,,,,,,,,,,,,,,,,,212.682788600001,None,212.682788600001,None,right,1,0.6944922000002407,212.682788600001,None,1,213.39667399999962,None,,,,,,,,,,,,,,,,,,,,,,,,,,,,,,,,,,,,,,,,,,,,,,,,,,,,,,,,,,,0,001,2021_Feb_19_1507,cal_abstract,2020.2.10,60.00564053037298,
,Cond,stimuli/Small/25.jpg,left,,,,,,,,,,,0,32,32,32,,,,,,,,,,,,,,,,,,,,,,,,,,,,,,,,,,,214.25363070000094,None,214.25363070000094,None,left,1,18.87484360000053,214.25363070000094,None,1,233.15763400000105,None,,,,,,,,,,,,,,,,,,,,,,,,,,,,,,,,,,,,,,,,,,,,,,,,,,,,,,,,,,,0,001,2021_Feb_19_1507,cal_abstract,2020.2.10,60.00564053037298,
,Cond,stimuli/Small/9.jpg,right,,,,,,,,,,,0,33,33,33,,,,,,,,,,,,,,,,,,,,,,,,,,,,,,,,,,,233.9690752000006,None,233.9690752000006,None,left,0,1.5186104999993404,233.9690752000006,None,0,235.53051090000008,None,,,,,,,,,,,,,,,,,,,,,,,,,,,,,,,,,,,,,,,,,,,,,,,,,,,,,,,,,,,0,001,2021_Feb_19_1507,cal_abstract,2020.2.10,60.00564053037298,
,Fix1,stimuli/School/9.jpg,left,,,,,,,,,,,0,34,34,34,,,,,,,,,,,,,,,,,,,,,,,,,,,,,,,,,,,236.3254893000012,None,236.3254893000012,None,left,1,5.092284299998937,236.3254893000012,None,1,241.46304640000017,None,,,,,,,,,,,,,,,,,,,,,,,,,,,,,,,,,,,,,,,,,,,,,,,,,,,,,,,,,,,0,001,2021_Feb_19_1507,cal_abstract,2020.2.10,60.00564053037298,
,Fix1,stimuli/School/23.jpg,left,,,,,,,,,,,0,35,35,35,,,,,,,,,,,,,,,,,,,,,,,,,,,,,,,,,,,242.25556020000113,None,242.25556020000113,None,left,1,30.513364999998885,242.25556020000113,None,1,272.80214270000033,None,,,,,,,,,,,,,,,,,,,,,,,,,,,,,,,,,,,,,,,,,,,,,,,,,,,,,,,,,,,0,001,2021_Feb_19_1507,cal_abstract,2020.2.10,60.00564053037298,
,Fix1,stimuli/School/54.jpg,left,,,,,,,,,,,0,36,36,36,,,,,,,,,,,,,,,,,,,,,,,,,,,,,,,,,,,273.6262258000006,None,273.6262258000006,None,left,1,1.3529920000000857,273.6262258000006,None,1,275.0036068999998,None,,,,,,,,,,,,,,,,,,,,,,,,,,,,,,,,,,,,,,,,,,,,,,,,,,,,,,,,,,,0,001,2021_Feb_19_1507,cal_abstract,2020.2.10,60.00564053037298,
,Cond,stimuli/Small/43.jpg,right,,,,,,,,,,,0,37,37,37,,,,,,,,,,,,,,,,,,,,,,,,,,,,,,,,,,,275.86356800000067,None,275.86356800000067,None,right,1,1.2356299000002764,275.86356800000067,None,1,277.1223721000006,None,,,,,,,,,,,,,,,,,,,,,,,,,,,,,,,,,,,,,,,,,,,,,,,,,,,,,,,,,,,0,001,2021_Feb_19_1507,cal_abstract,2020.2.10,60.00564053037298,
,Fix2,stimuli/Dangerous/22.jpg,right,,,,,,,,,,,0,38,38,38,,,,,,,,,,,,,,,,,,,,,,,,,,,,,,,,,,,277.9296983000004,None,277.9296983000004,None,right,1,1.1494913000005909,277.9296983000004,None,1,279.10828460000084,None,,,,,,,,,,,,,,,,,,,,,,,,,,,,,,,,,,,,,,,,,,,,,,,,,,,,,,,,,,,0,001,2021_Feb_19_1507,cal_abstract,2020.2.10,60.00564053037298,
,Fix2,stimuli/Dangerous/43.jpg,right,,,,,,,,,,,0,39,39,39,,,,,,,,,,,,,,,,,,,,,,,,,,,,,,,,,,,279.9922193000002,None,279.9922193000002,None,right,1,0.7865935999998328,279.9922193000002,None,1,280.80812330000117,None,,,,,,,,,,,,,,,,,,,,,,,,,,,,,,,,,,,,,,,,,,,,,,,,,,,,,,,,,,,0,001,2021_Feb_19_1507,cal_abstract,2020.2.10,60.00564053037298,
,Cond,stimuli/Small/36.jpg,left,,,,,,,,,,,0,40,40,40,,,,,,,,,,,,,,,,,,,,,,,,,,,,,,,,,,,281.62596810000105,None,281.62596810000105,None,left,1,1.603521200000614,281.62596810000105,None,1,283.2596699000005,None,,,,,,,,,,,,,,,,,,,,,,,,,,,,,,,,,,,,,,,,,,,,,,,,,,,,,,,,,,,0,001,2021_Feb_19_1507,cal_abstract,2020.2.10,60.00564053037298,
,Fix2,stimuli/Dangerous/38.jpg,right,,,,,,,,,,,0,41,41,41,,,,,,,,,,,,,,,,,,,,,,,,,,,,,,,,,,,284.06433430000106,None,284.06433430000106,None,right,1,3.6047899999994115,284.06433430000106,None,1,287.6967844999999,None,,,,,,,,,,,,,,,,,,,,,,,,,,,,,,,,,,,,,,,,,,,,,,,,,,,,,,,,,,,0,001,2021_Feb_19_1507,cal_abstract,2020.2.10,60.00564053037298,
,Fix1,stimuli/School/18.jpg,left,,,,,,,,,,,0,42,42,42,,,,,,,,,,,,,,,,,,,,,,,,,,,,,,,,,,,288.50698730000113,None,288.50698730000113,None,left,1,4.242195599999832,288.50698730000113,None,1,292.7670385000001,None,,,,,,,,,,,,,,,,,,,,,,,,,,,,,,,,,,,,,,,,,,,,,,,,,,,,,,,,,,,0,001,2021_Feb_19_1507,cal_abstract,2020.2.10,60.00564053037298,
,Fix1,stimuli/School/36.jpg,left,,,,,,,,,,,0,43,43,43,,,,,,,,,,,,,,,,,,,,,,,,,,,,,,,,,,,293.5683043000008,None,293.5683043000008,None,left,1,1.4704542999988917,293.5683043000008,None,1,295.06582920000073,None,,,,,,,,,,,,,,,,,,,,,,,,,,,,,,,,,,,,,,,,,,,,,,,,,,,,,,,,,,,0,001,2021_Feb_19_1507,cal_abstract,2020.2.10,60.00564053037298,
,Fix1,stimuli/School/48.jpg,left,,,,,,,,,,,0,44,44,44,,,,,,,,,,,,,,,,,,,,,,,,,,,,,,,,,,,295.85904780000055,None,295.85904780000055,None,right,0,0.7294597999989492,295.85904780000055,None,0,296.6367030000001,None,,,,,,,,,,,,,,,,,,,,,,,,,,,,,,,,,,,,,,,,,,,,,,,,,,,,,,,,,,,0,001,2021_Feb_19_1507,cal_abstract,2020.2.10,60.00564053037298,
,Fix1,stimuli/School/42.jpg,left,,,,,,,,,,,0,45,45,45,,,,,,,,,,,,,,,,,,,,,,,,,,,,,,,,,,,297.47435550000046,None,297.47435550000046,None,left,1,3.1344826000004105,297.47435550000046,None,1,300.6519602999997,None,,,,,,,,,,,,,,,,,,,,,,,,,,,,,,,,,,,,,,,,,,,,,,,,,,,,,,,,,,,0,001,2021_Feb_19_1507,cal_abstract,2020.2.10,60.00564053037298,
,Cond,stimuli/Small/23.jpg,right,,,,,,,,,,,0,46,46,46,,,,,,,,,,,,,,,,,,,,,,,,,,,,,,,,,,,301.45212250000077,None,301.45212250000077,None,right,1,2.337659699998767,301.45212250000077,None,1,303.8083322000002,None,,,,,,,,,,,,,,,,,,,,,,,,,,,,,,,,,,,,,,,,,,,,,,,,,,,,,,,,,,,0,001,2021_Feb_19_1507,cal_abstract,2020.2.10,60.00564053037298,
,Cond,stimuli/Small/38.jpg,left,,,,,,,,,,,0,47,47,47,,,,,,,,,,,,,,,,,,,,,,,,,,,,,,,,,,,304.6066389000007,None,304.6066389000007,None,left,1,0.9037200000002485,304.6066389000007,None,1,305.5406165000004,None,,,,,,,,,,,,,,,,,,,,,,,,,,,,,,,,,,,,,,,,,,,,,,,,,,,,,,,,,,,0,001,2021_Feb_19_1507,cal_abstract,2020.2.10,60.00564053037298,
,Cond,stimuli/Small/55.jpg,right,,,,,,,,,,,0,48,48,48,,,,,,,,,,,,,,,,,,,,,,,,,,,,,,,,,,,306.35070410000117,None,306.35070410000117,None,left,0,3.7193847999988066,306.35070410000117,None,0,310.11808010000095,None,,,,,,,,,,,,,,,,,,,,,,,,,,,,,,,,,,,,,,,,,,,,,,,,,,,,,,,,,,,0,001,2021_Feb_19_1507,cal_abstract,2020.2.10,60.00564053037298,
,Cond,stimuli/Small/1.jpg,left,,,,,,,,,,,0,49,49,49,,,,,,,,,,,,,,,,,,,,,,,,,,,,,,,,,,,310.90637740000057,None,310.90637740000057,None,left,1,4.1438481000004685,310.90637740000057,None,1,315.10042369999974,None,,,,,,,,,,,,,,,,,,,,,,,,,,,,,,,,,,,,,,,,,,,,,,,,,,,,,,,,,,,0,001,2021_Feb_19_1507,cal_abstract,2020.2.10,60.00564053037298,
,Fix1,stimuli/School/6.jpg,left,,,,,,,,,,,0,50,50,50,,,,,,,,,,,,,,,,,,,,,,,,,,,,,,,,,,,315.8993253000008,None,315.8993253000008,None,left,1,2.100405500001216,315.8993253000008,None,1,318.0177132000008,None,,,,,,,,,,,,,,,,,,,,,,,,,,,,,,,,,,,,,,,,,,,,,,,,,,,,,,,,,,,0,001,2021_Feb_19_1507,cal_abstract,2020.2.10,60.00564053037298,
,Fix2,stimuli/Dangerous/18.jpg,right,,,,,,,,,,,0,51,51,51,,,,,,,,,,,,,,,,,,,,,,,,,,,,,,,,,,,318.8245693000008,None,318.8245693000008,None,right,1,1.395696900000985,318.8245693000008,None,1,320.2515701000011,None,,,,,,,,,,,,,,,,,,,,,,,,,,,,,,,,,,,,,,,,,,,,,,,,,,,,,,,,,,,0,001,2021_Feb_19_1507,cal_abstract,2020.2.10,60.00564053037298,
,Fix1,stimuli/School/1.jpg,left,,,,,,,,,,,0,52,52,52,,,,,,,,,,,,,,,,,,,,,,,,,,,,,,,,,,,321.06147690000034,None,321.06147690000034,None,left,1,1.5583341000001383,321.06147690000034,None,1,322.65172410000014,None,,,,,,,,,,,,,,,,,,,,,,,,,,,,,,,,,,,,,,,,,,,,,,,,,,,,,,,,,,,0,001,2021_Feb_19_1507,cal_abstract,2020.2.10,60.00564053037298,
,Cond,stimuli/Small/33.jpg,right,,,,,,,,,,,0,53,53,53,,,,,,,,,,,,,,,,,,,,,,,,,,,,,,,,,,,323.4461164000004,None,323.4461164000004,None,right,1,1.394074499999988,323.4461164000004,None,1,324.87130179999986,None,,,,,,,,,,,,,,,,,,,,,,,,,,,,,,,,,,,,,,,,,,,,,,,,,,,,,,,,,,,0,001,2021_Feb_19_1507,cal_abstract,2020.2.10,60.00564053037298,
,Cond,stimuli/Small/12.jpg,left,,,,,,,,,,,0,54,54,54,,,,,,,,,,,,,,,,,,,,,,,,,,,,,,,,,,,325.68138440000075,None,325.68138440000075,None,right,0,1.3587808999982371,325.68138440000075,None,0,327.0891351999999,None,,,,,,,,,,,,,,,,,,,,,,,,,,,,,,,,,,,,,,,,,,,,,,,,,,,,,,,,,,,0,001,2021_Feb_19_1507,cal_abstract,2020.2.10,60.00564053037298,
,Cond,stimuli/Small/17.jpg,right,,,,,,,,,,,0,55,55,55,,,,,,,,,,,,,,,,,,,,,,,,,,,,,,,,,,,327.8767439000003,None,327.8767439000003,None,left,0,2.403143999999884,327.8767439000003,None,0,330.3097988999998,None,,,,,,,,,,,,,,,,,,,,,,,,,,,,,,,,,,,,,,,,,,,,,,,,,,,,,,,,,,,0,001,2021_Feb_19_1507,cal_abstract,2020.2.10,60.00564053037298,
,Fix1,stimuli/School/17.jpg,left,,,,,,,,,,,0,56,56,56,,,,,,,,,,,,,,,,,,,,,,,,,,,,,,,,,,,331.1146841000009,None,331.1146841000009,None,left,1,7.515232699999615,331.1146841000009,None,1,338.6632023000002,None,,,,,,,,,,,,,,,,,,,,,,,,,,,,,,,,,,,,,,,,,,,,,,,,,,,,,,,,,,,0,001,2021_Feb_19_1507,cal_abstract,2020.2.10,60.00564053037298,
,Cond,stimuli/Small/11.jpg,right,,,,,,,,,,,0,57,57,57,,,,,,,,,,,,,,,,,,,,,,,,,,,,,,,,,,,339.4491386999998,None,339.4491386999998,None,right,1,2.5022096000011516,339.4491386999998,None,1,341.9868641000012,None,,,,,,,,,,,,,,,,,,,,,,,,,,,,,,,,,,,,,,,,,,,,,,,,,,,,,,,,,,,0,001,2021_Feb_19_1507,cal_abstract,2020.2.10,60.00564053037298,
,Fix1,stimuli/School/33.jpg,left,,,,,,,,,,,0,58,58,58,,,,,,,,,,,,,,,,,,,,,,,,,,,,,,,,,,,342.85334390000025,None,342.85334390000025,None,right,0,1.4375691000004736,342.85334390000025,None,0,344.33623350000016,None,,,,,,,,,,,,,,,,,,,,,,,,,,,,,,,,,,,,,,,,,,,,,,,,,,,,,,,,,,,0,001,2021_Feb_19_1507,cal_abstract,2020.2.10,60.00564053037298,
,Cond,stimuli/Small/18.jpg,right,,,,,,,,,,,0,59,59,59,,,,,,,,,,,,,,,,,,,,,,,,,,,,,,,,,,,345.1510728000012,None,345.1510728000012,None,left,0,2.6997349000012036,345.1510728000012,None,0,347.87181410000085,None,,,,,,,,,,,,,,,,,,,,,,,,,,,,,,,,,,,,,,,,,,,,,,,,,,,,,,,,,,,0,001,2021_Feb_19_1507,cal_abstract,2020.2.10,60.00564053037298,
,Fix2,stimuli/Dangerous/61.jpg,right,,,,,,,,,,,0,60,60,60,,,,,,,,,,,,,,,,,,,,,,,,,,,,,,,,,,,348.7195238000004,None,348.7195238000004,None,right,1,1.681608499999129,348.7195238000004,None,1,350.4420547999998,None,,,,,,,,,,,,,,,,,,,,,,,,,,,,,,,,,,,,,,,,,,,,,,,,,,,,,,,,,,,0,001,2021_Feb_19_1507,cal_abstract,2020.2.10,60.00564053037298,
,Fix2,stimuli/Dangerous/32.jpg,right,,,,,,,,,,,0,61,61,61,,,,,,,,,,,,,,,,,,,,,,,,,,,,,,,,,,,351.24036999999953,None,351.24036999999953,None,right,1,0.83092089999991,351.24036999999953,None,1,352.0899714999996,None,,,,,,,,,,,,,,,,,,,,,,,,,,,,,,,,,,,,,,,,,,,,,,,,,,,,,,,,,,,0,001,2021_Feb_19_1507,cal_abstract,2020.2.10,60.00564053037298,
,Fix2,stimuli/Dangerous/28.jpg,right,,,,,,,,,,,0,62,62,62,,,,,,,,,,,,,,,,,,,,,,,,,,,,,,,,,,,352.8965687,None,352.8965687,None,right,1,0.9241056999999273,352.8965687,None,1,353.84174300000086,None,,,,,,,,,,,,,,,,,,,,,,,,,,,,,,,,,,,,,,,,,,,,,,,,,,,,,,,,,,,0,001,2021_Feb_19_1507,cal_abstract,2020.2.10,60.00564053037298,
,Cond,stimuli/Small/16.jpg,left,,,,,,,,,,,0,63,63,63,,,,,,,,,,,,,,,,,,,,,,,,,,,,,,,,,,,354.6490035000006,None,354.6490035000006,None,left,1,0.9921610000001237,354.6490035000006,None,1,355.6604726000005,None,,,,,,,,,,,,,,,,,,,,,,,,,,,,,,,,,,,,,,,,,,,,,,,,,,,,,,,,,,,0,001,2021_Feb_19_1507,cal_abstract,2020.2.10,60.00564053037298,
,Cond,stimuli/Small/14.jpg,right,,,,,,,,,,,0,64,64,64,,,,,,,,,,,,,,,,,,,,,,,,,,,,,,,,,,,356.4645180999996,None,356.4645180999996,None,left,0,1.7962692999990395,356.4645180999996,None,0,358.29557750000095,None,,,,,,,,,,,,,,,,,,,,,,,,,,,,,,,,,,,,,,,,,,,,,,,,,,,,,,,,,,,0,001,2021_Feb_19_1507,cal_abstract,2020.2.10,60.00564053037298,
,Fix2,stimuli/Dangerous/35.jpg,right,,,,,,,,,,,0,65,65,65,,,,,,,,,,,,,,,,,,,,,,,,,,,,,,,,,,,359.0849020000005,None,359.0849020000005,None,right,1,5.506413600000087,359.0849020000005,None,1,364.63106080000034,None,,,,,,,,,,,,,,,,,,,,,,,,,,,,,,,,,,,,,,,,,,,,,,,,,,,,,,,,,,,0,001,2021_Feb_19_1507,cal_abstract,2020.2.10,60.00564053037298,
,Fix2,stimuli/Dangerous/3.jpg,right,,,,,,,,,,,0,66,66,66,,,,,,,,,,,,,,,,,,,,,,,,,,,,,,,,,,,365.4179306999995,None,365.4179306999995,None,right,1,1.2130894000001717,365.4179306999995,None,1,366.65208130000065,None,,,,,,,,,,,,,,,,,,,,,,,,,,,,,,,,,,,,,,,,,,,,,,,,,,,,,,,,,,,0,001,2021_Feb_19_1507,cal_abstract,2020.2.10,60.00564053037298,
,Cond,stimuli/Small/45.jpg,left,,,,,,,,,,,0,67,67,67,,,,,,,,,,,,,,,,,,,,,,,,,,,,,,,,,,,367.45725570000104,None,367.45725570000104,None,left,1,0.9934470999996847,367.45725570000104,None,1,368.46885790000124,None,,,,,,,,,,,,,,,,,,,,,,,,,,,,,,,,,,,,,,,,,,,,,,,,,,,,,,,,,,,0,001,2021_Feb_19_1507,cal_abstract,2020.2.10,60.00564053037298,
,Fix2,stimuli/Dangerous/10.jpg,right,,,,,,,,,,,0,68,68,68,,,,,,,,,,,,,,,,,,,,,,,,,,,,,,,,,,,369.3072959000001,None,369.3072959000001,None,right,1,0.9337808999989647,369.3072959000001,None,1,370.26945440000054,None,,,,,,,,,,,,,,,,,,,,,,,,,,,,,,,,,,,,,,,,,,,,,,,,,,,,,,,,,,,0,001,2021_Feb_19_1507,cal_abstract,2020.2.10,60.00564053037298,
,Fix2,stimuli/Dangerous/9.jpg,right,,,,,,,,,,,0,69,69,69,,,,,,,,,,,,,,,,,,,,,,,,,,,,,,,,,,,371.08775980000064,None,371.08775980000064,None,right,1,0.8129702000005636,371.08775980000064,None,1,371.9201492000011,None,,,,,,,,,,,,,,,,,,,,,,,,,,,,,,,,,,,,,,,,,,,,,,,,,,,,,,,,,,,0,001,2021_Feb_19_1507,cal_abstract,2020.2.10,60.00564053037298,
,Cond,stimuli/Small/31.jpg,left,,,,,,,,,,,0,70,70,70,,,,,,,,,,,,,,,,,,,,,,,,,,,,,,,,,,,372.7568554999998,None,372.7568554999998,None,left,1,1.2841819999994186,372.7568554999998,None,1,374.0719527000001,None,,,,,,,,,,,,,,,,,,,,,,,,,,,,,,,,,,,,,,,,,,,,,,,,,,,,,,,,,,,0,001,2021_Feb_19_1507,cal_abstract,2020.2.10,60.00564053037298,
,Fix1,stimuli/School/19.jpg,left,,,,,,,,,,,0,71,71,71,,,,,,,,,,,,,,,,,,,,,,,,,,,,,,,,,,,374.8821004000001,None,374.8821004000001,None,left,1,2.3887857000008808,374.8821004000001,None,1,377.29165420000027,None,,,,,,,,,,,,,,,,,,,,,,,,,,,,,,,,,,,,,,,,,,,,,,,,,,,,,,,,,,,0,001,2021_Feb_19_1507,cal_abstract,2020.2.10,60.00564053037298,
,Fix1,stimuli/School/11.jpg,left,,,,,,,,,,,0,72,72,72,,,,,,,,,,,,,,,,,,,,,,,,,,,,,,,,,,,378.1088008000006,None,378.1088008000006,None,left,1,0.8522491999992781,378.1088008000006,None,1,378.99286890000076,None,,,,,,,,,,,,,,,,,,,,,,,,,,,,,,,,,,,,,,,,,,,,,,,,,,,,,,,,,,,0,001,2021_Feb_19_1507,cal_abstract,2020.2.10,60.00564053037298,
,Fix1,stimuli/School/31.jpg,left,,,,,,,,,,,0,73,73,73,,,,,,,,,,,,,,,,,,,,,,,,,,,,,,,,,,,379.797724,None,379.797724,None,left,1,1.903127499999755,379.797724,None,1,381.72889620000024,None,,,,,,,,,,,,,,,,,,,,,,,,,,,,,,,,,,,,,,,,,,,,,,,,,,,,,,,,,,,0,001,2021_Feb_19_1507,cal_abstract,2020.2.10,60.00564053037298,
,Fix1,stimuli/School/21.jpg,left,,,,,,,,,,,0,74,74,74,,,,,,,,,,,,,,,,,,,,,,,,,,,,,,,,,,,382.53475310000067,None,382.53475310000067,None,left,1,1.3371191000005638,382.53475310000067,None,1,383.89617250000083,None,,,,,,,,,,,,,,,,,,,,,,,,,,,,,,,,,,,,,,,,,,,,,,,,,,,,,,,,,,,0,001,2021_Feb_19_1507,cal_abstract,2020.2.10,60.00564053037298,
,Fix1,stimuli/School/55.jpg,left,,,,,,,,,,,0,75,75,75,,,,,,,,,,,,,,,,,,,,,,,,,,,,,,,,,,,384.70495110000047,None,384.70495110000047,None,left,1,0.7274660000002768,384.70495110000047,None,1,385.4642285000009,None,,,,,,,,,,,,,,,,,,,,,,,,,,,,,,,,,,,,,,,,,,,,,,,,,,,,,,,,,,,0,001,2021_Feb_19_1507,cal_abstract,2020.2.10,60.00564053037298,
,Cond,stimuli/Small/32.jpg,right,,,,,,,,,,,0,76,76,76,,,,,,,,,,,,,,,,,,,,,,,,,,,,,,,,,,,386.2925491999995,None,386.2925491999995,None,left,0,3.5794052999990527,386.2925491999995,None,0,389.91698370000086,None,,,,,,,,,,,,,,,,,,,,,,,,,,,,,,,,,,,,,,,,,,,,,,,,,,,,,,,,,,,0,001,2021_Feb_19_1507,cal_abstract,2020.2.10,60.00564053037298,
,Fix2,stimuli/Dangerous/48.jpg,right,,,,,,,,,,,0,77,77,77,,,,,,,,,,,,,,,,,,,,,,,,,,,,,,,,,,,390.7227787000011,None,390.7227787000011,None,right,1,3.1690997000005154,390.7227787000011,None,1,393.9378183000008,None,,,,,,,,,,,,,,,,,,,,,,,,,,,,,,,,,,,,,,,,,,,,,,,,,,,,,,,,,,,0,001,2021_Feb_19_1507,cal_abstract,2020.2.10,60.00564053037298,
,Cond,stimuli/Small/5.jpg,left,,,,,,,,,,,0,78,78,78,,,,,,,,,,,,,,,,,,,,,,,,,,,,,,,,,,,394.7250036000005,None,394.7250036000005,None,left,1,2.1369412999993074,394.7250036000005,None,1,396.88707179999983,None,,,,,,,,,,,,,,,,,,,,,,,,,,,,,,,,,,,,,,,,,,,,,,,,,,,,,,,,,,,0,001,2021_Feb_19_1507,cal_abstract,2020.2.10,60.00564053037298,
,Fix1,stimuli/School/37.jpg,left,,,,,,,,,,,0,79,79,79,,,,,,,,,,,,,,,,,,,,,,,,,,,,,,,,,,,397.69414440000037,None,397.69414440000037,None,left,1,1.247803100000965,397.69414440000037,None,1,398.9715530000012,None,,,,,,,,,,,,,,,,,,,,,,,,,,,,,,,,,,,,,,,,,,,,,,,,,,,,,,,,,,,0,001,2021_Feb_19_1507,cal_abstract,2020.2.10,60.00564053037298,
,Fix1,stimuli/School/27.jpg,left,,,,,,,,,,,0,80,80,80,,,,,,,,,,,,,,,,,,,,,,,,,,,,,,,,,,,399.7782903999996,None,399.7782903999996,None,right,0,1.7335614999992686,399.7782903999996,None,0,401.5631482000008,None,,,,,,,,,,,,,,,,,,,,,,,,,,,,,,,,,,,,,,,,,,,,,,,,,,,,,,,,,,,0,001,2021_Feb_19_1507,cal_abstract,2020.2.10,60.00564053037298,
,Cond,stimuli/Small/28.jpg,right,,,,,,,,,,,0,81,81,81,,,,,,,,,,,,,,,,,,,,,,,,,,,,,,,,,,,402.344549200001,None,402.344549200001,None,left,0,3.0876019000006636,402.344549200001,None,0,405.4612309000004,None,,,,,,,,,,,,,,,,,,,,,,,,,,,,,,,,,,,,,,,,,,,,,,,,,,,,,,,,,,,0,001,2021_Feb_19_1507,cal_abstract,2020.2.10,60.00564053037298,
,Cond,stimuli/Small/30.jpg,left,,,,,,,,,,,0,82,82,82,,,,,,,,,,,,,,,,,,,,,,,,,,,,,,,,,,,406.2741418000005,None,406.2741418000005,None,right,0,1.7085390000011103,406.2741418000005,None,0,408.01213500000085,None,,,,,,,,,,,,,,,,,,,,,,,,,,,,,,,,,,,,,,,,,,,,,,,,,,,,,,,,,,,0,001,2021_Feb_19_1507,cal_abstract,2020.2.10,60.00564053037298,
,Fix1,stimuli/School/59.jpg,left,,,,,,,,,,,0,83,83,83,,,,,,,,,,,,,,,,,,,,,,,,,,,,,,,,,,,408.8170805999998,None,408.8170805999998,None,left,1,3.1347913999998127,408.8170805999998,None,1,411.9961414999998,None,,,,,,,,,,,,,,,,,,,,,,,,,,,,,,,,,,,,,,,,,,,,,,,,,,,,,,,,,,,0,001,2021_Feb_19_1507,cal_abstract,2020.2.10,60.00564053037298,
,Fix2,stimuli/Dangerous/7.jpg,right,,,,,,,,,,,0,84,84,84,,,,,,,,,,,,,,,,,,,,,,,,,,,,,,,,,,,412.81645899999967,None,412.81645899999967,None,right,1,1.5454572000016924,412.81645899999967,None,1,414.3827127000004,None,,,,,,,,,,,,,,,,,,,,,,,,,,,,,,,,,,,,,,,,,,,,,,,,,,,,,,,,,,,0,001,2021_Feb_19_1507,cal_abstract,2020.2.10,60.00564053037298,
,Cond,stimuli/Small/37.jpg,left,,,,,,,,,,,0,85,85,85,,,,,,,,,,,,,,,,,,,,,,,,,,,,,,,,,,,415.1884422000003,None,415.1884422000003,None,left,1,1.2035042000006797,415.1884422000003,None,1,416.4174598999998,None,,,,,,,,,,,,,,,,,,,,,,,,,,,,,,,,,,,,,,,,,,,,,,,,,,,,,,,,,,,0,001,2021_Feb_19_1507,cal_abstract,2020.2.10,60.00564053037298,
,Fix1,stimuli/School/13.jpg,left,,,,,,,,,,,0,86,86,86,,,,,,,,,,,,,,,,,,,,,,,,,,,,,,,,,,,417.2381836000004,None,417.2381836000004,None,left,1,0.8434909999996307,417.2381836000004,None,1,418.10401850000017,None,,,,,,,,,,,,,,,,,,,,,,,,,,,,,,,,,,,,,,,,,,,,,,,,,,,,,,,,,,,0,001,2021_Feb_19_1507,cal_abstract,2020.2.10,60.00564053037298,
,Fix2,stimuli/Dangerous/14.jpg,right,,,,,,,,,,,0,87,87,87,,,,,,,,,,,,,,,,,,,,,,,,,,,,,,,,,,,418.95572429999993,None,418.95572429999993,None,right,1,1.1361453999998048,418.95572429999993,None,1,420.1219609,None,,,,,,,,,,,,,,,,,,,,,,,,,,,,,,,,,,,,,,,,,,,,,,,,,,,,,,,,,,,0,001,2021_Feb_19_1507,cal_abstract,2020.2.10,60.00564053037298,
,Cond,stimuli/Small/50.jpg,left,,,,,,,,,,,0,88,88,88,,,,,,,,,,,,,,,,,,,,,,,,,,,,,,,,,,,420.91897640000025,None,420.91897640000025,None,left,1,7.074219600001015,420.91897640000025,None,1,428.0243713,None,,,,,,,,,,,,,,,,,,,,,,,,,,,,,,,,,,,,,,,,,,,,,,,,,,,,,,,,,,,0,001,2021_Feb_19_1507,cal_abstract,2020.2.10,60.00564053037298,
,Fix2,stimuli/Dangerous/63.jpg,right,,,,,,,,,,,0,89,89,89,,,,,,,,,,,,,,,,,,,,,,,,,,,,,,,,,,,428.8174443000007,None,428.8174443000007,None,right,1,0.6254776999994647,428.8174443000007,None,1,429.46017870000105,None,,,,,,,,,,,,,,,,,,,,,,,,,,,,,,,,,,,,,,,,,,,,,,,,,,,,,,,,,,,0,001,2021_Feb_19_1507,cal_abstract,2020.2.10,60.00564053037298,
,Fix2,stimuli/Dangerous/0.jpg,right,,,,,,,,,,,0,90,90,90,,,,,,,,,,,,,,,,,,,,,,,,,,,,,,,,,,,430.26599259999966,None,430.26599259999966,None,right,1,1.0168403000006947,430.26599259999966,None,1,431.3106977999996,None,,,,,,,,,,,,,,,,,,,,,,,,,,,,,,,,,,,,,,,,,,,,,,,,,,,,,,,,,,,0,001,2021_Feb_19_1507,cal_abstract,2020.2.10,60.00564053037298,
,Fix1,stimuli/School/32.jpg,left,,,,,,,,,,,0,91,91,91,,,,,,,,,,,,,,,,,,,,,,,,,,,,,,,,,,,432.12981370000125,None,432.12981370000125,None,right,0,8.283140400000775,432.12981370000125,None,0,440.45504749999964,None,,,,,,,,,,,,,,,,,,,,,,,,,,,,,,,,,,,,,,,,,,,,,,,,,,,,,,,,,,,0,001,2021_Feb_19_1507,cal_abstract,2020.2.10,60.00564053037298,
,Fix1,stimuli/School/29.jpg,left,,,,,,,,,,,0,92,92,92,,,,,,,,,,,,,,,,,,,,,,,,,,,,,,,,,,,441.2444269000007,None,441.2444269000007,None,left,1,3.3587373000009393,441.2444269000007,None,1,444.63674080000055,None,,,,,,,,,,,,,,,,,,,,,,,,,,,,,,,,,,,,,,,,,,,,,,,,,,,,,,,,,,,0,001,2021_Feb_19_1507,cal_abstract,2020.2.10,60.00564053037298,
,Cond,stimuli/Small/7.jpg,right,,,,,,,,,,,0,93,93,93,,,,,,,,,,,,,,,,,,,,,,,,,,,,,,,,,,,445.4312253999997,None,445.4312253999997,None,left,0,1.0914541000001918,445.4312253999997,None,0,446.57060699999965,None,,,,,,,,,,,,,,,,,,,,,,,,,,,,,,,,,,,,,,,,,,,,,,,,,,,,,,,,,,,0,001,2021_Feb_19_1507,cal_abstract,2020.2.10,60.00564053037298,
,Fix2,stimuli/Dangerous/19.jpg,right,,,,,,,,,,,0,94,94,94,,,,,,,,,,,,,,,,,,,,,,,,,,,,,,,,,,,447.3626189000006,None,447.3626189000006,None,right,1,0.8707862000010209,447.3626189000006,None,1,448.27347420000115,None,,,,,,,,,,,,,,,,,,,,,,,,,,,,,,,,,,,,,,,,,,,,,,,,,,,,,,,,,,,0,001,2021_Feb_19_1507,cal_abstract,2020.2.10,60.00564053037298,
,Cond,stimuli/Small/51.jpg,left,,,,,,,,,,,0,95,95,95,,,,,,,,,,,,,,,,,,,,,,,,,,,,,,,,,,,449.1044746999996,None,449.1044746999996,None,left,1,2.238676699998905,449.1044746999996,None,1,451.3753799999995,None,,,,,,,,,,,,,,,,,,,,,,,,,,,,,,,,,,,,,,,,,,,,,,,,,,,,,,,,,,,0,001,2021_Feb_19_1507,cal_abstract,2020.2.10,60.00564053037298,
,Fix2,stimuli/Dangerous/4.jpg,right,,,,,,,,,,,0,96,96,96,,,,,,,,,,,,,,,,,,,,,,,,,,,,,,,,,,,452.2272363000011,None,452.2272363000011,None,right,1,1.0756841000002169,452.2272363000011,None,1,453.3272498999995,None,,,,,,,,,,,,,,,,,,,,,,,,,,,,,,,,,,,,,,,,,,,,,,,,,,,,,,,,,,,0,001,2021_Feb_19_1507,cal_abstract,2020.2.10,60.00564053037298,
,Cond,stimuli/Small/24.jpg,left,,,,,,,,,,,0,97,97,97,,,,,,,,,,,,,,,,,,,,,,,,,,,,,,,,,,,454.16158180000093,None,454.16158180000093,None,left,1,2.001330600000074,454.16158180000093,None,1,456.19354639999983,None,,,,,,,,,,,,,,,,,,,,,,,,,,,,,,,,,,,,,,,,,,,,,,,,,,,,,,,,,,,0,001,2021_Feb_19_1507,cal_abstract,2020.2.10,60.00564053037298,
,Fix1,stimuli/School/58.jpg,left,,,,,,,,,,,0,98,98,98,,,,,,,,,,,,,,,,,,,,,,,,,,,,,,,,,,,456.98541359999945,None,456.98541359999945,None,left,1,1.0575263999999152,456.98541359999945,None,1,458.06579950000014,None,,,,,,,,,,,,,,,,,,,,,,,,,,,,,,,,,,,,,,,,,,,,,,,,,,,,,,,,,,,0,001,2021_Feb_19_1507,cal_abstract,2020.2.10,60.00564053037298,
,Cond,stimuli/Small/35.jpg,right,,,,,,,,,,,0,99,99,99,,,,,,,,,,,,,,,,,,,,,,,,,,,,,,,,,,,458.8790129000008,None,458.8790129000008,None,right,1,1.3241901000001235,458.8790129000008,None,1,460.2297042000009,None,,,,,,,,,,,,,,,,,,,,,,,,,,,,,,,,,,,,,,,,,,,,,,,,,,,,,,,,,,,0,001,2021_Feb_19_1507,cal_abstract,2020.2.10,60.00564053037298,
,Cond,stimuli/Small/40.jpg,left,,,,,,,,,,,0,100,100,100,,,,,,,,,,,,,,,,,,,,,,,,,,,,,,,,,,,461.0151239000006,None,461.0151239000006,None,left,1,1.8389510000015434,461.0151239000006,None,1,462.8841399000012,None,,,,,,,,,,,,,,,,,,,,,,,,,,,,,,,,,,,,,,,,,,,,,,,,,,,,,,,,,,,0,001,2021_Feb_19_1507,cal_abstract,2020.2.10,60.00564053037298,
,Cond,stimuli/Small/3.jpg,right,,,,,,,,,,,0,101,101,101,,,,,,,,,,,,,,,,,,,,,,,,,,,,,,,,,,,463.6846064000001,None,463.6846064000001,None,right,1,1.0597734000002674,463.6846064000001,None,1,464.7682788000002,None,,,,,,,,,,,,,,,,,,,,,,,,,,,,,,,,,,,,,,,,,,,,,,,,,,,,,,,,,,,0,001,2021_Feb_19_1507,cal_abstract,2020.2.10,60.00564053037298,
,Fix1,stimuli/School/38.jpg,left,,,,,,,,,,,0,102,102,102,,,,,,,,,,,,,,,,,,,,,,,,,,,,,,,,,,,465.5730590000003,None,465.5730590000003,None,left,1,5.5912678000004234,465.5730590000003,None,1,471.1885609000001,None,,,,,,,,,,,,,,,,,,,,,,,,,,,,,,,,,,,,,,,,,,,,,,,,,,,,,,,,,,,0,001,2021_Feb_19_1507,cal_abstract,2020.2.10,60.00564053037298,
,Fix2,stimuli/Dangerous/26.jpg,right,,,,,,,,,,,0,103,103,103,,,,,,,,,,,,,,,,,,,,,,,,,,,,,,,,,,,472.03239310000026,None,472.03239310000026,None,right,1,0.9517946999985725,472.03239310000026,None,1,473.0072048000002,None,,,,,,,,,,,,,,,,,,,,,,,,,,,,,,,,,,,,,,,,,,,,,,,,,,,,,,,,,,,0,001,2021_Feb_19_1507,cal_abstract,2020.2.10,60.00564053037298,
,Fix1,stimuli/School/51.jpg,left,,,,,,,,,,,0,104,104,104,,,,,,,,,,,,,,,,,,,,,,,,,,,,,,,,,,,473.81580250000115,None,473.81580250000115,None,left,1,1.0981183000003512,473.81580250000115,None,1,474.94175689999975,None,,,,,,,,,,,,,,,,,,,,,,,,,,,,,,,,,,,,,,,,,,,,,,,,,,,,,,,,,,,0,001,2021_Feb_19_1507,cal_abstract,2020.2.10,60.00564053037298,
,Cond,stimuli/Small/56.jpg,right,,,,,,,,,,,0,105,105,105,,,,,,,,,,,,,,,,,,,,,,,,,,,,,,,,,,,475.753200000001,None,475.753200000001,None,right,1,1.1309753999994427,475.753200000001,None,1,476.9094599,None,,,,,,,,,,,,,,,,,,,,,,,,,,,,,,,,,,,,,,,,,,,,,,,,,,,,,,,,,,,0,001,2021_Feb_19_1507,cal_abstract,2020.2.10,60.00564053037298,
,Cond,stimuli/Small/44.jpg,left,,,,,,,,,,,0,106,106,106,,,,,,,,,,,,,,,,,,,,,,,,,,,,,,,,,,,477.7195061000002,None,477.7195061000002,None,left,1,1.3346954000007827,477.7195061000002,None,1,479.07832860000053,None,,,,,,,,,,,,,,,,,,,,,,,,,,,,,,,,,,,,,,,,,,,,,,,,,,,,,,,,,,,0,001,2021_Feb_19_1507,cal_abstract,2020.2.10,60.00564053037298,
,Fix2,stimuli/Dangerous/36.jpg,right,,,,,,,,,,,0,107,107,107,,,,,,,,,,,,,,,,,,,,,,,,,,,,,,,,,,,479.88109369999984,None,479.88109369999984,None,right,1,2.352927300000374,479.88109369999984,None,1,482.26310379999995,None,,,,,,,,,,,,,,,,,,,,,,,,,,,,,,,,,,,,,,,,,,,,,,,,,,,,,,,,,,,0,001,2021_Feb_19_1507,cal_abstract,2020.2.10,60.00564053037298,
,Cond,stimuli/Small/54.jpg,left,,,,,,,,,,,0,108,108,108,,,,,,,,,,,,,,,,,,,,,,,,,,,,,,,,,,,483.07302809999965,None,483.07302809999965,None,left,1,1.2207170000001497,483.07302809999965,None,1,484.31526120000126,None,,,,,,,,,,,,,,,,,,,,,,,,,,,,,,,,,,,,,,,,,,,,,,,,,,,,,,,,,,,0,001,2021_Feb_19_1507,cal_abstract,2020.2.10,60.00564053037298,
,Fix1,stimuli/School/0.jpg,left,,,,,,,,,,,0,109,109,109,,,,,,,,,,,,,,,,,,,,,,,,,,,,,,,,,,,485.1479962000012,None,485.1479962000012,None,left,1,1.0858295999987604,485.1479962000012,None,1,486.2645272000009,None,,,,,,,,,,,,,,,,,,,,,,,,,,,,,,,,,,,,,,,,,,,,,,,,,,,,,,,,,,,0,001,2021_Feb_19_1507,cal_abstract,2020.2.10,60.00564053037298,
,Fix1,stimuli/School/57.jpg,left,,,,,,,,,,,0,110,110,110,,,,,,,,,,,,,,,,,,,,,,,,,,,,,,,,,,,487.07633759999953,None,487.07633759999953,None,left,1,1.547968500000934,487.07633759999953,None,1,488.6518780000006,None,,,,,,,,,,,,,,,,,,,,,,,,,,,,,,,,,,,,,,,,,,,,,,,,,,,,,,,,,,,0,001,2021_Feb_19_1507,cal_abstract,2020.2.10,60.00564053037298,
,Fix1,stimuli/School/24.jpg,left,,,,,,,,,,,0,111,111,111,,,,,,,,,,,,,,,,,,,,,,,,,,,,,,,,,,,489.45788530000027,None,489.45788530000027,None,left,1,2.006214099999852,489.45788530000027,None,1,491.4883484000002,None,,,,,,,,,,,,,,,,,,,,,,,,,,,,,,,,,,,,,,,,,,,,,,,,,,,,,,,,,,,0,001,2021_Feb_19_1507,cal_abstract,2020.2.10,60.00564053037298,
,Fix2,stimuli/Dangerous/45.jpg,right,,,,,,,,,,,0,112,112,112,,,,,,,,,,,,,,,,,,,,,,,,,,,,,,,,,,,492.2888543000008,None,492.2888543000008,None,right,1,0.9051696999995329,492.2888543000008,None,1,493.2197501999999,None,,,,,,,,,,,,,,,,,,,,,,,,,,,,,,,,,,,,,,,,,,,,,,,,,,,,,,,,,,,0,001,2021_Feb_19_1507,cal_abstract,2020.2.10,60.00564053037298,
,Fix2,stimuli/Dangerous/40.jpg,right,,,,,,,,,,,0,113,113,113,,,,,,,,,,,,,,,,,,,,,,,,,,,,,,,,,,,494.0251207000001,None,494.0251207000001,None,right,1,1.1189941000011459,494.0251207000001,None,1,495.1722339000007,None,,,,,,,,,,,,,,,,,,,,,,,,,,,,,,,,,,,,,,,,,,,,,,,,,,,,,,,,,,,0,001,2021_Feb_19_1507,cal_abstract,2020.2.10,60.00564053037298,
,Fix2,stimuli/Dangerous/39.jpg,right,,,,,,,,,,,0,114,114,114,,,,,,,,,,,,,,,,,,,,,,,,,,,,,,,,,,,496.009228500001,None,496.009228500001,None,right,1,0.9050156000012066,496.009228500001,None,1,496.94049690000065,None,,,,,,,,,,,,,,,,,,,,,,,,,,,,,,,,,,,,,,,,,,,,,,,,,,,,,,,,,,,0,001,2021_Feb_19_1507,cal_abstract,2020.2.10,60.00564053037298,
,Cond,stimuli/Small/59.jpg,left,,,,,,,,,,,0,115,115,115,,,,,,,,,,,,,,,,,,,,,,,,,,,,,,,,,,,497.74451000000045,None,497.74451000000045,None,left,1,1.1195982999997796,497.74451000000045,None,1,498.8910254000002,None,,,,,,,,,,,,,,,,,,,,,,,,,,,,,,,,,,,,,,,,,,,,,,,,,,,,,,,,,,,0,001,2021_Feb_19_1507,cal_abstract,2020.2.10,60.00564053037298,
,Fix2,stimuli/Dangerous/21.jpg,right,,,,,,,,,,,0,116,116,116,,,,,,,,,,,,,,,,,,,,,,,,,,,,,,,,,,,499.7069403000005,None,499.7069403000005,None,right,1,0.907135899999048,499.7069403000005,None,1,500.6415283000006,None,,,,,,,,,,,,,,,,,,,,,,,,,,,,,,,,,,,,,,,,,,,,,,,,,,,,,,,,,,,0,001,2021_Feb_19_1507,cal_abstract,2020.2.10,60.00564053037298,
,Fix1,stimuli/School/15.jpg,left,,,,,,,,,,,0,117,117,117,,,,,,,,,,,,,,,,,,,,,,,,,,,,,,,,,,,501.48135639999964,None,501.48135639999964,None,left,1,0.6425398999999743,501.48135639999964,None,1,502.1440695000001,None,,,,,,,,,,,,,,,,,,,,,,,,,,,,,,,,,,,,,,,,,,,,,,,,,,,,,,,,,,,0,001,2021_Feb_19_1507,cal_abstract,2020.2.10,60.00564053037298,
,Fix1,stimuli/School/5.jpg,left,,,,,,,,,,,0,118,118,118,,,,,,,,,,,,,,,,,,,,,,,,,,,,,,,,,,,502.9436850000002,None,502.9436850000002,None,left,1,9.181307099999685,502.9436850000002,None,1,512.1512906999997,None,,,,,,,,,,,,,,,,,,,,,,,,,,,,,,,,,,,,,,,,,,,,,,,,,,,,,,,,,,,0,001,2021_Feb_19_1507,cal_abstract,2020.2.10,60.00564053037298,
,Fix1,stimuli/School/46.jpg,left,,,,,,,,,,,0,119,119,119,,,,,,,,,,,,,,,,,,,,,,,,,,,,,,,,,,,512.9581662,None,512.9581662,None,left,1,5.976928799998859,512.9581662,None,1,518.956221800001,None,,,,,,,,,,,,,,,,,,,,,,,,,,,,,,,,,,,,,,,,,,,,,,,,,,,,,,,,,,,0,001,2021_Feb_19_1507,cal_abstract,2020.2.10,60.00564053037298,
,Fix1,stimuli/School/4.jpg,left,,,,,,,,,,,0,120,120,120,,,,,,,,,,,,,,,,,,,,,,,,,,,,,,,,,,,519.7669137000012,None,519.7669137000012,None,left,1,0.8780573000003642,519.7669137000012,None,1,520.6744251,None,,,,,,,,,,,,,,,,,,,,,,,,,,,,,,,,,,,,,,,,,,,,,,,,,,,,,,,,,,,0,001,2021_Feb_19_1507,cal_abstract,2020.2.10,60.00564053037298,
,Fix2,stimuli/Dangerous/8.jpg,right,,,,,,,,,,,0,121,121,121,,,,,,,,,,,,,,,,,,,,,,,,,,,,,,,,,,,521.4910591999997,None,521.4910591999997,None,right,1,0.7040904000004957,521.4910591999997,None,1,522.2223523000011,None,,,,,,,,,,,,,,,,,,,,,,,,,,,,,,,,,,,,,,,,,,,,,,,,,,,,,,,,,,,0,001,2021_Feb_19_1507,cal_abstract,2020.2.10,60.00564053037298,
,Fix2,stimuli/Dangerous/17.jpg,right,,,,,,,,,,,0,122,122,122,,,,,,,,,,,,,,,,,,,,,,,,,,,,,,,,,,,523.0089010000011,None,523.0089010000011,None,right,1,0.6162707000003138,523.0089010000011,None,1,523.6580226999995,None,,,,,,,,,,,,,,,,,,,,,,,,,,,,,,,,,,,,,,,,,,,,,,,,,,,,,,,,,,,0,001,2021_Feb_19_1507,cal_abstract,2020.2.10,60.00564053037298,
,Fix2,stimuli/Dangerous/1.jpg,right,,,,,,,,,,,0,123,123,123,,,,,,,,,,,,,,,,,,,,,,,,,,,,,,,,,,,524.4603564999998,None,524.4603564999998,None,right,1,0.9944276999995054,524.4603564999998,None,1,525.4771080999999,None,,,,,,,,,,,,,,,,,,,,,,,,,,,,,,,,,,,,,,,,,,,,,,,,,,,,,,,,,,,0,001,2021_Feb_19_1507,cal_abstract,2020.2.10,60.00564053037298,
,Fix1,stimuli/School/3.jpg,left,,,,,,,,,,,0,124,124,124,,,,,,,,,,,,,,,,,,,,,,,,,,,,,,,,,,,526.3219765000013,None,526.3219765000013,None,left,1,1.1527742999987822,526.3219765000013,None,1,527.4961143,None,,,,,,,,,,,,,,,,,,,,,,,,,,,,,,,,,,,,,,,,,,,,,,,,,,,,,,,,,,,0,001,2021_Feb_19_1507,cal_abstract,2020.2.10,60.00564053037298,
,Fix2,stimuli/Dangerous/37.jpg,right,,,,,,,,,,,0,125,125,125,,,,,,,,,,,,,,,,,,,,,,,,,,,,,,,,,,,528.2945053000003,None,528.2945053000003,None,right,1,0.8004001999997854,528.2945053000003,None,1,529.1281933999999,None,,,,,,,,,,,,,,,,,,,,,,,,,,,,,,,,,,,,,,,,,,,,,,,,,,,,,,,,,,,0,001,2021_Feb_19_1507,cal_abstract,2020.2.10,60.00564053037298,
,Fix1,stimuli/School/22.jpg,left,,,,,,,,,,,0,126,126,126,,,,,,,,,,,,,,,,,,,,,,,,,,,,,,,,,,,529.9288085999997,None,529.9288085999997,None,left,1,2.1862805999990087,529.9288085999997,None,1,532.1482014000012,None,,,,,,,,,,,,,,,,,,,,,,,,,,,,,,,,,,,,,,,,,,,,,,,,,,,,,,,,,,,0,001,2021_Feb_19_1507,cal_abstract,2020.2.10,60.00564053037298,
,Fix2,stimuli/Dangerous/51.jpg,right,,,,,,,,,,,0,127,127,127,,,,,,,,,,,,,,,,,,,,,,,,,,,,,,,,,,,532.9620875,None,532.9620875,None,right,1,0.6230916000004072,532.9620875,None,1,533.6150701000006,None,,,,,,,,,,,,,,,,,,,,,,,,,,,,,,,,,,,,,,,,,,,,,,,,,,,,,,,,,,,0,001,2021_Feb_19_1507,cal_abstract,2020.2.10,60.00564053037298,
,Cond,stimuli/Small/6.jpg,left,,,,,,,,,,,0,128,128,128,,,,,,,,,,,,,,,,,,,,,,,,,,,,,,,,,,,534.4219515000004,None,534.4219515000004,None,left,1,1.3739841999995406,534.4219515000004,None,1,535.8164348999999,None,,,,,,,,,,,,,,,,,,,,,,,,,,,,,,,,,,,,,,,,,,,,,,,,,,,,,,,,,,,0,001,2021_Feb_19_1507,cal_abstract,2020.2.10,60.00564053037298,
,Fix1,stimuli/School/12.jpg,left,,,,,,,,,,,0,129,129,129,,,,,,,,,,,,,,,,,,,,,,,,,,,,,,,,,,,536.6233728000007,None,536.6233728000007,None,left,1,1.8617684000000736,536.6233728000007,None,1,538.5176017000013,None,,,,,,,,,,,,,,,,,,,,,,,,,,,,,,,,,,,,,,,,,,,,,,,,,,,,,,,,,,,0,001,2021_Feb_19_1507,cal_abstract,2020.2.10,60.00564053037298,
,Fix2,stimuli/Dangerous/13.jpg,right,,,,,,,,,,,0,130,130,130,,,,,,,,,,,,,,,,,,,,,,,,,,,,,,,,,,,539.3085091000012,None,539.3085091000012,None,right,1,1.0168455999992148,539.3085091000012,None,1,540.3535169000006,None,,,,,,,,,,,,,,,,,,,,,,,,,,,,,,,,,,,,,,,,,,,,,,,,,,,,,,,,,,,0,001,2021_Feb_19_1507,cal_abstract,2020.2.10,60.00564053037298,
,Fix1,stimuli/School/49.jpg,left,,,,,,,,,,,0,131,131,131,,,,,,,,,,,,,,,,,,,,,,,,,,,,,,,,,,,541.1544912999998,None,541.1544912999998,None,left,1,1.7116838000001735,541.1544912999998,None,1,542.8883454999996,None,,,,,,,,,,,,,,,,,,,,,,,,,,,,,,,,,,,,,,,,,,,,,,,,,,,,,,,,,,,0,001,2021_Feb_19_1507,cal_abstract,2020.2.10,60.00564053037298,
,Fix2,stimuli/Dangerous/2.jpg,right,,,,,,,,,,,0,132,132,132,,,,,,,,,,,,,,,,,,,,,,,,,,,,,,,,,,,543.6934149999997,None,543.6934149999997,None,right,1,0.8030074999987846,543.6934149999997,None,1,544.5248499999998,None,,,,,,,,,,,,,,,,,,,,,,,,,,,,,,,,,,,,,,,,,,,,,,,,,,,,,,,,,,,0,001,2021_Feb_19_1507,cal_abstract,2020.2.10,60.00564053037298,
,Cond,stimuli/Small/52.jpg,left,,,,,,,,,,,0,133,133,133,,,,,,,,,,,,,,,,,,,,,,,,,,,,,,,,,,,545.3297911000009,None,545.3297911000009,None,left,1,2.0662266999988788,545.3297911000009,None,1,547.4267266999996,None,,,,,,,,,,,,,,,,,,,,,,,,,,,,,,,,,,,,,,,,,,,,,,,,,,,,,,,,,,,0,001,2021_Feb_19_1507,cal_abstract,2020.2.10,60.00564053037298,
,Cond,stimuli/Small/27.jpg,right,,,,,,,,,,,0,134,134,134,,,,,,,,,,,,,,,,,,,,,,,,,,,,,,,,,,,548.2221368999999,None,548.2221368999999,None,left,0,1.673840299999938,548.2221368999999,None,0,549.9455083000012,None,,,,,,,,,,,,,,,,,,,,,,,,,,,,,,,,,,,,,,,,,,,,,,,,,,,,,,,,,,,0,001,2021_Feb_19_1507,cal_abstract,2020.2.10,60.00564053037298,
,Fix1,stimuli/School/41.jpg,left,,,,,,,,,,,0,135,135,135,,,,,,,,,,,,,,,,,,,,,,,,,,,,,,,,,,,550.7325806999997,None,550.7325806999997,None,left,1,2.813657599999715,550.7325806999997,None,1,553.5943922000006,None,,,,,,,,,,,,,,,,,,,,,,,,,,,,,,,,,,,,,,,,,,,,,,,,,,,,,,,,,,,0,001,2021_Feb_19_1507,cal_abstract,2020.2.10,60.00564053037298,
,Fix1,stimuli/School/40.jpg,left,,,,,,,,,,,0,136,136,136,,,,,,,,,,,,,,,,,,,,,,,,,,,,,,,,,,,554.3601600000002,None,554.3601600000002,None,left,1,0.7754917000002024,554.3601600000002,None,1,555.1624023000004,None,,,,,,,,,,,,,,,,,,,,,,,,,,,,,,,,,,,,,,,,,,,,,,,,,,,,,,,,,,,0,001,2021_Feb_19_1507,cal_abstract,2020.2.10,60.00564053037298,
,Fix2,stimuli/Dangerous/57.jpg,right,,,,,,,,,,,0,137,137,137,,,,,,,,,,,,,,,,,,,,,,,,,,,,,,,,,,,555.9652102,None,555.9652102,None,right,1,1.690647400000671,555.9652102,None,1,557.6827580000008,None,,,,,,,,,,,,,,,,,,,,,,,,,,,,,,,,,,,,,,,,,,,,,,,,,,,,,,,,,,,0,001,2021_Feb_19_1507,cal_abstract,2020.2.10,60.00564053037298,
,Cond,stimuli/Small/21.jpg,left,,,,,,,,,,,0,138,138,138,,,,,,,,,,,,,,,,,,,,,,,,,,,,,,,,,,,558.4919786999999,None,558.4919786999999,None,left,1,1.5840829999997368,558.4919786999999,None,1,560.1044335000006,None,,,,,,,,,,,,,,,,,,,,,,,,,,,,,,,,,,,,,,,,,,,,,,,,,,,,,,,,,,,0,001,2021_Feb_19_1507,cal_abstract,2020.2.10,60.00564053037298,
,Cond,stimuli/Small/48.jpg,right,,,,,,,,,,,0,139,139,139,,,,,,,,,,,,,,,,,,,,,,,,,,,,,,,,,,,560.9238380999996,None,560.9238380999996,None,right,1,1.4122175000011339,560.9238380999996,None,1,562.3673512000005,None,,,,,,,,,,,,,,,,,,,,,,,,,,,,,,,,,,,,,,,,,,,,,,,,,,,,,,,,,,,0,001,2021_Feb_19_1507,cal_abstract,2020.2.10,60.00564053037298,
,Fix2,stimuli/Dangerous/12.jpg,right,,,,,,,,,,,0,140,140,140,,,,,,,,,,,,,,,,,,,,,,,,,,,,,,,,,,,563.1742169999998,None,563.1742169999998,None,right,1,0.8621519000007538,563.1742169999998,None,1,564.0685078000006,None,,,,,,,,,,,,,,,,,,,,,,,,,,,,,,,,,,,,,,,,,,,,,,,,,,,,,,,,,,,0,001,2021_Feb_19_1507,cal_abstract,2020.2.10,60.00564053037298,
,Fix1,stimuli/School/2.jpg,left,,,,,,,,,,,0,141,141,141,,,,,,,,,,,,,,,,,,,,,,,,,,,,,,,,,,,564.8947177000009,None,564.8947177000009,None,left,1,3.221338100000139,564.8947177000009,None,1,568.139320100001,None,,,,,,,,,,,,,,,,,,,,,,,,,,,,,,,,,,,,,,,,,,,,,,,,,,,,,,,,,,,0,001,2021_Feb_19_1507,cal_abstract,2020.2.10,60.00564053037298,
,Fix1,stimuli/School/16.jpg,left,,,,,,,,,,,0,142,142,142,,,,,,,,,,,,,,,,,,,,,,,,,,,,,,,,,,,568.9492267999995,None,568.9492267999995,None,left,1,5.0067774999988615,568.9492267999995,None,1,573.9768242999999,None,,,,,,,,,,,,,,,,,,,,,,,,,,,,,,,,,,,,,,,,,,,,,,,,,,,,,,,,,,,0,001,2021_Feb_19_1507,cal_abstract,2020.2.10,60.00564053037298,
,Fix2,stimuli/Dangerous/23.jpg,right,,,,,,,,,,,0,143,143,143,,,,,,,,,,,,,,,,,,,,,,,,,,,,,,,,,,,574.7811509000003,None,574.7811509000003,None,right,1,1.6046005000007426,574.7811509000003,None,1,576.4142819999997,None,,,,,,,,,,,,,,,,,,,,,,,,,,,,,,,,,,,,,,,,,,,,,,,,,,,,,,,,,,,0,001,2021_Feb_19_1507,cal_abstract,2020.2.10,60.00564053037298,
,Fix2,stimuli/Dangerous/5.jpg,right,,,,,,,,,,,0,144,144,144,,,,,,,,,,,,,,,,,,,,,,,,,,,,,,,,,,,577.2139378000011,None,577.2139378000011,None,right,1,1.5019191999999748,577.2139378000011,None,1,578.7437040000004,None,,,,,,,,,,,,,,,,,,,,,,,,,,,,,,,,,,,,,,,,,,,,,,,,,,,,,,,,,,,0,001,2021_Feb_19_1507,cal_abstract,2020.2.10,60.00564053037298,
,Fix2,stimuli/Dangerous/56.jpg,right,,,,,,,,,,,0,145,145,145,,,,,,,,,,,,,,,,,,,,,,,,,,,,,,,,,,,579.5438769000011,None,579.5438769000011,None,right,1,3.2134015999999974,579.5438769000011,None,1,582.7821168999999,None,,,,,,,,,,,,,,,,,,,,,,,,,,,,,,,,,,,,,,,,,,,,,,,,,,,,,,,,,,,0,001,2021_Feb_19_1507,cal_abstract,2020.2.10,60.00564053037298,
,Cond,stimuli/Small/22.jpg,left,,,,,,,,,,,0,146,146,146,,,,,,,,,,,,,,,,,,,,,,,,,,,,,,,,,,,583.5825592000001,None,583.5825592000001,None,left,1,2.254658099998778,583.5825592000001,None,1,585.8663378000001,None,,,,,,,,,,,,,,,,,,,,,,,,,,,,,,,,,,,,,,,,,,,,,,,,,,,,,,,,,,,0,001,2021_Feb_19_1507,cal_abstract,2020.2.10,60.00564053037298,
,Fix1,stimuli/School/7.jpg,left,,,,,,,,,,,0,147,147,147,,,,,,,,,,,,,,,,,,,,,,,,,,,,,,,,,,,586.6696410000004,None,586.6696410000004,None,left,1,1.2973383999997168,586.6696410000004,None,1,587.9874507000004,None,,,,,,,,,,,,,,,,,,,,,,,,,,,,,,,,,,,,,,,,,,,,,,,,,,,,,,,,,,,0,001,2021_Feb_19_1507,cal_abstract,2020.2.10,60.00564053037298,
,Fix1,stimuli/School/43.jpg,left,,,,,,,,,,,0,148,148,148,,,,,,,,,,,,,,,,,,,,,,,,,,,,,,,,,,,588.8174782999995,None,588.8174782999995,None,left,1,3.280142599998726,588.8174782999995,None,1,592.121733,None,,,,,,,,,,,,,,,,,,,,,,,,,,,,,,,,,,,,,,,,,,,,,,,,,,,,,,,,,,,0,001,2021_Feb_19_1507,cal_abstract,2020.2.10,60.00564053037298,
,Fix2,stimuli/Dangerous/27.jpg,right,,,,,,,,,,,0,149,149,149,,,,,,,,,,,,,,,,,,,,,,,,,,,,,,,,,,,592.9346086999994,None,592.9346086999994,None,right,1,1.4824775999986741,592.9346086999994,None,1,594.4407157000005,None,,,,,,,,,,,,,,,,,,,,,,,,,,,,,,,,,,,,,,,,,,,,,,,,,,,,,,,,,,,0,001,2021_Feb_19_1507,cal_abstract,2020.2.10,60.00564053037298,
,,,,,,,,,,,,,,,,,,,,,,,,,,,,,,,,,,,,,,,,,,,,,,,,,,,,,,,,,,,,,,,,595.2051967999996,None,c,22.791902900000423,595.2051967999996,None,,,,,,,,,,,,,,,,,,,,,,,,,,,,,,,,,,,,,,,,,,,,,,,,,,,,,0,001,2021_Feb_19_1507,cal_abstract,2020.2.10,60.00564053037298,
,,,,,,,,,,,,,,,,,,,,,,,,,,,,,,,,,,,,,,,,,,,,,,,,,,,,,,,,,,,,,,,,,,,,,,618.0241091000007,None,618.0241091000007,None,s,170.5257580999987,618.0241091000007,None,,,,,,,,,,,,,,,,,,,,,,,,,,,,,,,,,,,,,,,,,,,,,0,001,2021_Feb_19_1507,cal_abstract,2020.2.10,60.00564053037298,
,,,,Fix2,stimuli/Healthy/38.jpg,left,,,,,,,,,,,,0,0,0,0,,,,,,,,,,,,,,,,,,,,,,,,,,,,,,,,,,,,,,,,1,,,,,,,,,,,,,,,,,788.6618724,None,788.6618724,None,left,1,3.5571141000000353,788.6618724,None,792.2634201000001,None,,,,,,,,,,,,,,,,,,,,,,,,,,,,,,,,,,0,001,2021_Feb_19_1507,cal_abstract,2020.2.10,60.00564053037298,
,,,,Fix1,stimuli/Old/36.jpg,right,,,,,,,,,,,,0,1,1,1,,,,,,,,,,,,,,,,,,,,,,,,,,,,,,,,,,,,,,,,1,,,,,,,,,,,,,,,,,793.0872171999999,None,793.0872171999999,None,right,1,2.402225099998759,793.0872171999999,None,795.5128404000006,None,,,,,,,,,,,,,,,,,,,,,,,,,,,,,,,,,,0,001,2021_Feb_19_1507,cal_abstract,2020.2.10,60.00564053037298,
,,,,Cond,stimuli/Wealth/56.jpg,left,,,,,,,,,,,,0,2,2,2,,,,,,,,,,,,,,,,,,,,,,,,,,,,,,,,,,,,,,,,1,,,,,,,,,,,,,,,,,796.3828020000001,None,796.3828020000001,None,left,1,6.357187300000078,796.3828020000001,None,802.767809500001,None,,,,,,,,,,,,,,,,,,,,,,,,,,,,,,,,,,0,001,2021_Feb_19_1507,cal_abstract,2020.2.10,60.00564053037298,
,,,,Fix1,stimuli/Old/58.jpg,right,,,,,,,,,,,,0,3,3,3,,,,,,,,,,,,,,,,,,,,,,,,,,,,,,,,,,,,,,,,1,,,,,,,,,,,,,,,,,803.5749099000004,None,803.5749099000004,None,right,1,1.825187399999777,803.5749099000004,None,805.4198541000005,None,,,,,,,,,,,,,,,,,,,,,,,,,,,,,,,,,,0,001,2021_Feb_19_1507,cal_abstract,2020.2.10,60.00564053037298,
,,,,Fix2,stimuli/Healthy/67.jpg,left,,,,,,,,,,,,0,4,4,4,,,,,,,,,,,,,,,,,,,,,,,,,,,,,,,,,,,,,,,,1,,,,,,,,,,,,,,,,,806.2244658,None,806.2244658,None,left,1,2.9752214000000095,806.2244658,None,809.2223437000011,None,,,,,,,,,,,,,,,,,,,,,,,,,,,,,,,,,,0,001,2021_Feb_19_1507,cal_abstract,2020.2.10,60.00564053037298,
,,,,Fix1,stimuli/Old/40.jpg,right,,,,,,,,,,,,0,5,5,5,,,,,,,,,,,,,,,,,,,,,,,,,,,,,,,,,,,,,,,,1,,,,,,,,,,,,,,,,,810.1015754,None,810.1015754,None,right,1,1.0885558999998466,810.1015754,None,811.2219483000008,None,,,,,,,,,,,,,,,,,,,,,,,,,,,,,,,,,,0,001,2021_Feb_19_1507,cal_abstract,2020.2.10,60.00564053037298,
,,,,Fix1,stimuli/Old/55.jpg,right,,,,,,,,,,,,0,6,6,6,,,,,,,,,,,,,,,,,,,,,,,,,,,,,,,,,,,,,,,,1,,,,,,,,,,,,,,,,,812.0375732000011,None,812.0375732000011,None,right,1,1.6624600000013743,812.0375732000011,None,813.725247800001,None,,,,,,,,,,,,,,,,,,,,,,,,,,,,,,,,,,0,001,2021_Feb_19_1507,cal_abstract,2020.2.10,60.00564053037298,
,,,,Fix2,stimuli/Healthy/37.jpg,left,,,,,,,,,,,,0,7,7,7,,,,,,,,,,,,,,,,,,,,,,,,,,,,,,,,,,,,,,,,1,,,,,,,,,,,,,,,,,814.5276575999997,None,814.5276575999997,None,left,1,1.752174000001105,814.5276575999997,None,816.3095028999996,None,,,,,,,,,,,,,,,,,,,,,,,,,,,,,,,,,,0,001,2021_Feb_19_1507,cal_abstract,2020.2.10,60.00564053037298,
,,,,Fix2,stimuli/Healthy/13.jpg,left,,,,,,,,,,,,0,8,8,8,,,,,,,,,,,,,,,,,,,,,,,,,,,,,,,,,,,,,,,,1,,,,,,,,,,,,,,,,,817.1235715000003,None,817.1235715000003,None,left,1,2.5660633999996207,817.1235715000003,None,819.7110338000002,None,,,,,,,,,,,,,,,,,,,,,,,,,,,,,,,,,,0,001,2021_Feb_19_1507,cal_abstract,2020.2.10,60.00564053037298,
,,,,Fix2,stimuli/Healthy/10.jpg,left,,,,,,,,,,,,0,9,9,9,,,,,,,,,,,,,,,,,,,,,,,,,,,,,,,,,,,,,,,,1,,,,,,,,,,,,,,,,,820.523670300001,None,820.523670300001,None,left,1,1.4562110999995639,820.523670300001,None,822.0138387999996,None,,,,,,,,,,,,,,,,,,,,,,,,,,,,,,,,,,0,001,2021_Feb_19_1507,cal_abstract,2020.2.10,60.00564053037298,
,,,,Cond,stimuli/Wealth/5.jpg,right,,,,,,,,,,,,0,10,10,10,,,,,,,,,,,,,,,,,,,,,,,,,,,,,,,,,,,,,,,,1,,,,,,,,,,,,,,,,,822.8179841000001,None,822.8179841000001,None,right,1,1.6726826000012807,822.8179841000001,None,824.5145339999999,None,,,,,,,,,,,,,,,,,,,,,,,,,,,,,,,,,,0,001,2021_Feb_19_1507,cal_abstract,2020.2.10,60.00564053037298,
,,,,Fix2,stimuli/Healthy/1.jpg,left,,,,,,,,,,,,0,11,11,11,,,,,,,,,,,,,,,,,,,,,,,,,,,,,,,,,,,,,,,,1,,,,,,,,,,,,,,,,,825.3197443000008,None,825.3197443000008,None,left,1,2.9604047000011633,825.3197443000008,None,828.3017012,None,,,,,,,,,,,,,,,,,,,,,,,,,,,,,,,,,,0,001,2021_Feb_19_1507,cal_abstract,2020.2.10,60.00564053037298,
,,,,Fix1,stimuli/Old/20.jpg,right,,,,,,,,,,,,0,12,12,12,,,,,,,,,,,,,,,,,,,,,,,,,,,,,,,,,,,,,,,,1,,,,,,,,,,,,,,,,,829.1399356000002,None,829.1399356000002,None,right,1,0.7507144999999582,829.1399356000002,None,829.9201346999998,None,,,,,,,,,,,,,,,,,,,,,,,,,,,,,,,,,,0,001,2021_Feb_19_1507,cal_abstract,2020.2.10,60.00564053037298,
,,,,Fix2,stimuli/Healthy/4.jpg,left,,,,,,,,,,,,0,13,13,13,,,,,,,,,,,,,,,,,,,,,,,,,,,,,,,,,,,,,,,,1,,,,,,,,,,,,,,,,,830.7191758999998,None,830.7191758999998,None,left,1,1.021027499999036,830.7191758999998,None,831.7703110000002,None,,,,,,,,,,,,,,,,,,,,,,,,,,,,,,,,,,0,001,2021_Feb_19_1507,cal_abstract,2020.2.10,60.00564053037298,
,,,,Cond,stimuli/Wealth/41.jpg,right,,,,,,,,,,,,0,14,14,14,,,,,,,,,,,,,,,,,,,,,,,,,,,,,,,,,,,,,,,,0,,,,,,,,,,,,,,,,,832.6437413000003,None,832.6437413000003,None,left,0,1.6162724000005255,832.6437413000003,None,834.3069312999996,None,,,,,,,,,,,,,,,,,,,,,,,,,,,,,,,,,,0,001,2021_Feb_19_1507,cal_abstract,2020.2.10,60.00564053037298,
,,,,Cond,stimuli/Wealth/57.jpg,left,,,,,,,,,,,,0,15,15,15,,,,,,,,,,,,,,,,,,,,,,,,,,,,,,,,,,,,,,,,0,,,,,,,,,,,,,,,,,835.0991766999996,None,835.0991766999996,None,right,0,1.2609769999999116,835.0991766999996,None,836.3894875999995,None,,,,,,,,,,,,,,,,,,,,,,,,,,,,,,,,,,0,001,2021_Feb_19_1507,cal_abstract,2020.2.10,60.00564053037298,
,,,,Fix2,stimuli/Healthy/58.jpg,left,,,,,,,,,,,,0,16,16,16,,,,,,,,,,,,,,,,,,,,,,,,,,,,,,,,,,,,,,,,1,,,,,,,,,,,,,,,,,837.1944985999999,None,837.1944985999999,None,left,1,1.5061167999992904,837.1944985999999,None,838.7477256000002,None,,,,,,,,,,,,,,,,,,,,,,,,,,,,,,,,,,0,001,2021_Feb_19_1507,cal_abstract,2020.2.10,60.00564053037298,
,,,,Fix1,stimuli/Old/49.jpg,right,,,,,,,,,,,,0,17,17,17,,,,,,,,,,,,,,,,,,,,,,,,,,,,,,,,,,,,,,,,1,,,,,,,,,,,,,,,,,839.5271689000001,None,839.5271689000001,None,right,1,0.8745412999996915,839.5271689000001,None,840.4272846000003,None,,,,,,,,,,,,,,,,,,,,,,,,,,,,,,,,,,0,001,2021_Feb_19_1507,cal_abstract,2020.2.10,60.00564053037298,
,,,,Fix1,stimuli/Old/29.jpg,right,,,,,,,,,,,,0,18,18,18,,,,,,,,,,,,,,,,,,,,,,,,,,,,,,,,,,,,,,,,1,,,,,,,,,,,,,,,,,841.2427970000008,None,841.2427970000008,None,right,1,3.168198299999858,841.2427970000008,None,844.4311166000007,None,,,,,,,,,,,,,,,,,,,,,,,,,,,,,,,,,,0,001,2021_Feb_19_1507,cal_abstract,2020.2.10,60.00564053037298,
,,,,Cond,stimuli/Wealth/26.jpg,left,,,,,,,,,,,,0,19,19,19,,,,,,,,,,,,,,,,,,,,,,,,,,,,,,,,,,,,,,,,1,,,,,,,,,,,,,,,,,845.2353082000009,None,845.2353082000009,None,left,1,1.6153782000001229,845.2353082000009,None,846.8808773000001,None,,,,,,,,,,,,,,,,,,,,,,,,,,,,,,,,,,0,001,2021_Feb_19_1507,cal_abstract,2020.2.10,60.00564053037298,
,,,,Fix1,stimuli/Old/37.jpg,right,,,,,,,,,,,,0,20,20,20,,,,,,,,,,,,,,,,,,,,,,,,,,,,,,,,,,,,,,,,1,,,,,,,,,,,,,,,,,847.682038500001,None,847.682038500001,None,right,1,0.9085677999992186,847.682038500001,None,848.6123874000004,None,,,,,,,,,,,,,,,,,,,,,,,,,,,,,,,,,,0,001,2021_Feb_19_1507,cal_abstract,2020.2.10,60.00564053037298,
,,,,Fix2,stimuli/Healthy/42.jpg,left,,,,,,,,,,,,0,21,21,21,,,,,,,,,,,,,,,,,,,,,,,,,,,,,,,,,,,,,,,,1,,,,,,,,,,,,,,,,,849.4124745000008,None,849.4124745000008,None,left,1,0.9888123000000633,849.4124745000008,None,850.4331161000009,None,,,,,,,,,,,,,,,,,,,,,,,,,,,,,,,,,,0,001,2021_Feb_19_1507,cal_abstract,2020.2.10,60.00564053037298,
,,,,Fix2,stimuli/Healthy/55.jpg,left,,,,,,,,,,,,0,22,22,22,,,,,,,,,,,,,,,,,,,,,,,,,,,,,,,,,,,,,,,,1,,,,,,,,,,,,,,,,,851.2900098999999,None,851.2900098999999,None,left,1,0.8609290000003966,851.2900098999999,None,852.1835018000002,None,,,,,,,,,,,,,,,,,,,,,,,,,,,,,,,,,,0,001,2021_Feb_19_1507,cal_abstract,2020.2.10,60.00564053037298,
,,,,Fix1,stimuli/Old/15.jpg,right,,,,,,,,,,,,0,23,23,23,,,,,,,,,,,,,,,,,,,,,,,,,,,,,,,,,,,,,,,,1,,,,,,,,,,,,,,,,,853.0195481999999,None,853.0195481999999,None,right,1,1.2611856999992597,853.0195481999999,None,854.3030153,None,,,,,,,,,,,,,,,,,,,,,,,,,,,,,,,,,,0,001,2021_Feb_19_1507,cal_abstract,2020.2.10,60.00564053037298,
,,,,Fix2,stimuli/Healthy/8.jpg,left,,,,,,,,,,,,0,24,24,24,,,,,,,,,,,,,,,,,,,,,,,,,,,,,,,,,,,,,,,,1,,,,,,,,,,,,,,,,,855.0888276999995,None,855.0888276999995,None,left,1,1.212273399998594,855.0888276999995,None,856.3202191,None,,,,,,,,,,,,,,,,,,,,,,,,,,,,,,,,,,0,001,2021_Feb_19_1507,cal_abstract,2020.2.10,60.00564053037298,
,,,,Cond,stimuli/Wealth/17.jpg,right,,,,,,,,,,,,0,25,25,25,,,,,,,,,,,,,,,,,,,,,,,,,,,,,,,,,,,,,,,,1,,,,,,,,,,,,,,,,,857.1491213000008,None,857.1491213000008,None,right,1,1.1318074999999226,857.1491213000008,None,858.3069121999997,None,,,,,,,,,,,,,,,,,,,,,,,,,,,,,,,,,,0,001,2021_Feb_19_1507,cal_abstract,2020.2.10,60.00564053037298,
,,,,Cond,stimuli/Wealth/27.jpg,left,,,,,,,,,,,,0,26,26,26,,,,,,,,,,,,,,,,,,,,,,,,,,,,,,,,,,,,,,,,1,,,,,,,,,,,,,,,,,859.1301433000008,None,859.1301433000008,None,left,1,1.1018787000011798,859.1301433000008,None,860.2566924000002,None,,,,,,,,,,,,,,,,,,,,,,,,,,,,,,,,,,0,001,2021_Feb_19_1507,cal_abstract,2020.2.10,60.00564053037298,
,,,,Cond,stimuli/Wealth/0.jpg,right,,,,,,,,,,,,0,27,27,27,,,,,,,,,,,,,,,,,,,,,,,,,,,,,,,,,,,,,,,,0,,,,,,,,,,,,,,,,,861.0741245000008,None,861.0741245000008,None,left,0,4.4474000000009255,861.0741245000008,None,865.5625773000011,None,,,,,,,,,,,,,,,,,,,,,,,,,,,,,,,,,,0,001,2021_Feb_19_1507,cal_abstract,2020.2.10,60.00564053037298,
,,,,Fix2,stimuli/Healthy/5.jpg,left,,,,,,,,,,,,0,28,28,28,,,,,,,,,,,,,,,,,,,,,,,,,,,,,,,,,,,,,,,,1,,,,,,,,,,,,,,,,,866.3565927,None,866.3565927,None,left,1,1.1244795000002341,866.3565927,None,867.5253850999998,None,,,,,,,,,,,,,,,,,,,,,,,,,,,,,,,,,,0,001,2021_Feb_19_1507,cal_abstract,2020.2.10,60.00564053037298,
,,,,Fix2,stimuli/Healthy/29.jpg,left,,,,,,,,,,,,0,29,29,29,,,,,,,,,,,,,,,,,,,,,,,,,,,,,,,,,,,,,,,,1,,,,,,,,,,,,,,,,,868.3166830999999,None,868.3166830999999,None,left,1,0.9941717999990942,868.3166830999999,None,869.3326893000012,None,,,,,,,,,,,,,,,,,,,,,,,,,,,,,,,,,,0,001,2021_Feb_19_1507,cal_abstract,2020.2.10,60.00564053037298,
,,,,Cond,stimuli/Wealth/53.jpg,right,,,,,,,,,,,,0,30,30,30,,,,,,,,,,,,,,,,,,,,,,,,,,,,,,,,,,,,,,,,1,,,,,,,,,,,,,,,,,870.1993616,None,870.1993616,None,right,1,1.1914797999997973,870.1993616,None,871.4159873000008,None,,,,,,,,,,,,,,,,,,,,,,,,,,,,,,,,,,0,001,2021_Feb_19_1507,cal_abstract,2020.2.10,60.00564053037298,
,,,,Fix1,stimuli/Old/2.jpg,right,,,,,,,,,,,,0,31,31,31,,,,,,,,,,,,,,,,,,,,,,,,,,,,,,,,,,,,,,,,1,,,,,,,,,,,,,,,,,872.246573800001,None,872.246573800001,None,right,1,1.0743973000007827,872.246573800001,None,873.3488393000007,None,,,,,,,,,,,,,,,,,,,,,,,,,,,,,,,,,,0,001,2021_Feb_19_1507,cal_abstract,2020.2.10,60.00564053037298,
,,,,Fix2,stimuli/Healthy/7.jpg,left,,,,,,,,,,,,0,32,32,32,,,,,,,,,,,,,,,,,,,,,,,,,,,,,,,,,,,,,,,,1,,,,,,,,,,,,,,,,,874.1509832000011,None,874.1509832000011,None,left,1,3.149758600000496,874.1509832000011,None,877.3178841999998,None,,,,,,,,,,,,,,,,,,,,,,,,,,,,,,,,,,0,001,2021_Feb_19_1507,cal_abstract,2020.2.10,60.00564053037298,
,,,,Fix1,stimuli/Old/7.jpg,right,,,,,,,,,,,,0,33,33,33,,,,,,,,,,,,,,,,,,,,,,,,,,,,,,,,,,,,,,,,1,,,,,,,,,,,,,,,,,878.1344795000005,None,878.1344795000005,None,right,1,2.1278336999985186,878.1344795000005,None,880.2879069999999,None,,,,,,,,,,,,,,,,,,,,,,,,,,,,,,,,,,0,001,2021_Feb_19_1507,cal_abstract,2020.2.10,60.00564053037298,
,,,,Cond,stimuli/Wealth/10.jpg,left,,,,,,,,,,,,0,34,34,34,,,,,,,,,,,,,,,,,,,,,,,,,,,,,,,,,,,,,,,,1,,,,,,,,,,,,,,,,,881.0891836999999,None,881.0891836999999,None,left,1,3.1227071000012074,881.0891836999999,None,884.2395154999995,None,,,,,,,,,,,,,,,,,,,,,,,,,,,,,,,,,,0,001,2021_Feb_19_1507,cal_abstract,2020.2.10,60.00564053037298,
,,,,Fix2,stimuli/Healthy/68.jpg,left,,,,,,,,,,,,0,35,35,35,,,,,,,,,,,,,,,,,,,,,,,,,,,,,,,,,,,,,,,,1,,,,,,,,,,,,,,,,,885.0507183000009,None,885.0507183000009,None,left,1,1.451118699998915,885.0507183000009,None,886.5250011000007,None,,,,,,,,,,,,,,,,,,,,,,,,,,,,,,,,,,0,001,2021_Feb_19_1507,cal_abstract,2020.2.10,60.00564053037298,
,,,,Cond,stimuli/Wealth/24.jpg,right,,,,,,,,,,,,0,36,36,36,,,,,,,,,,,,,,,,,,,,,,,,,,,,,,,,,,,,,,,,1,,,,,,,,,,,,,,,,,887.3326529999995,None,887.3326529999995,None,right,1,5.4996960000007675,887.3326529999995,None,892.8634314999999,None,,,,,,,,,,,,,,,,,,,,,,,,,,,,,,,,,,0,001,2021_Feb_19_1507,cal_abstract,2020.2.10,60.00564053037298,
,,,,Cond,stimuli/Wealth/12.jpg,left,,,,,,,,,,,,0,37,37,37,,,,,,,,,,,,,,,,,,,,,,,,,,,,,,,,,,,,,,,,1,,,,,,,,,,,,,,,,,893.6859573000002,None,893.6859573000002,None,left,1,2.1564042000009067,893.6859573000002,None,895.8649803999997,None,,,,,,,,,,,,,,,,,,,,,,,,,,,,,,,,,,0,001,2021_Feb_19_1507,cal_abstract,2020.2.10,60.00564053037298,
,,,,Fix2,stimuli/Healthy/20.jpg,left,,,,,,,,,,,,0,38,38,38,,,,,,,,,,,,,,,,,,,,,,,,,,,,,,,,,,,,,,,,1,,,,,,,,,,,,,,,,,896.7333386999999,None,896.7333386999999,None,left,1,1.1685412000006181,896.7333386999999,None,897.9312934000009,None,,,,,,,,,,,,,,,,,,,,,,,,,,,,,,,,,,0,001,2021_Feb_19_1507,cal_abstract,2020.2.10,60.00564053037298,
,,,,Fix2,stimuli/Healthy/44.jpg,left,,,,,,,,,,,,0,39,39,39,,,,,,,,,,,,,,,,,,,,,,,,,,,,,,,,,,,,,,,,1,,,,,,,,,,,,,,,,,898.7074986999996,None,898.7074986999996,None,left,1,1.0147249000001466,898.7074986999996,None,899.7529809000007,None,,,,,,,,,,,,,,,,,,,,,,,,,,,,,,,,,,0,001,2021_Feb_19_1507,cal_abstract,2020.2.10,60.00564053037298,
,,,,Fix2,stimuli/Healthy/27.jpg,left,,,,,,,,,,,,0,40,40,40,,,,,,,,,,,,,,,,,,,,,,,,,,,,,,,,,,,,,,,,1,,,,,,,,,,,,,,,,,900.609891600001,None,900.609891600001,None,left,1,3.0923753999995824,900.609891600001,None,903.7211607000008,None,,,,,,,,,,,,,,,,,,,,,,,,,,,,,,,,,,0,001,2021_Feb_19_1507,cal_abstract,2020.2.10,60.00564053037298,
,,,,Fix2,stimuli/Healthy/59.jpg,left,,,,,,,,,,,,0,41,41,41,,,,,,,,,,,,,,,,,,,,,,,,,,,,,,,,,,,,,,,,1,,,,,,,,,,,,,,,,,904.5314644000009,None,904.5314644000009,None,left,1,0.9006181999993714,904.5314644000009,None,905.4581032999995,None,,,,,,,,,,,,,,,,,,,,,,,,,,,,,,,,,,0,001,2021_Feb_19_1507,cal_abstract,2020.2.10,60.00564053037298,
,,,,Fix1,stimuli/Old/46.jpg,right,,,,,,,,,,,,0,42,42,42,,,,,,,,,,,,,,,,,,,,,,,,,,,,,,,,,,,,,,,,1,,,,,,,,,,,,,,,,,906.2558523999996,None,906.2558523999996,None,right,1,2.795951000000059,906.2558523999996,None,909.0774246000001,None,,,,,,,,,,,,,,,,,,,,,,,,,,,,,,,,,,0,001,2021_Feb_19_1507,cal_abstract,2020.2.10,60.00564053037298,
,,,,Fix2,stimuli/Healthy/39.jpg,left,,,,,,,,,,,,0,43,43,43,,,,,,,,,,,,,,,,,,,,,,,,,,,,,,,,,,,,,,,,1,,,,,,,,,,,,,,,,,909.877268100001,None,909.877268100001,None,left,1,3.014676700000564,909.877268100001,None,912.9104172000007,None,,,,,,,,,,,,,,,,,,,,,,,,,,,,,,,,,,0,001,2021_Feb_19_1507,cal_abstract,2020.2.10,60.00564053037298,
,,,,Fix1,stimuli/Old/38.jpg,right,,,,,,,,,,,,0,44,44,44,,,,,,,,,,,,,,,,,,,,,,,,,,,,,,,,,,,,,,,,1,,,,,,,,,,,,,,,,,913.7173806999999,None,913.7173806999999,None,right,1,2.1350282000003062,913.7173806999999,None,915.8782150000006,None,,,,,,,,,,,,,,,,,,,,,,,,,,,,,,,,,,0,001,2021_Feb_19_1507,cal_abstract,2020.2.10,60.00564053037298,
,,,,Fix2,stimuli/Healthy/66.jpg,left,,,,,,,,,,,,0,45,45,45,,,,,,,,,,,,,,,,,,,,,,,,,,,,,,,,,,,,,,,,1,,,,,,,,,,,,,,,,,916.6851540000007,None,916.6851540000007,None,left,1,3.2380536000000575,916.6851540000007,None,919.9479552000012,None,,,,,,,,,,,,,,,,,,,,,,,,,,,,,,,,,,0,001,2021_Feb_19_1507,cal_abstract,2020.2.10,60.00564053037298,
,,,,Fix1,stimuli/Old/17.jpg,right,,,,,,,,,,,,0,46,46,46,,,,,,,,,,,,,,,,,,,,,,,,,,,,,,,,,,,,,,,,1,,,,,,,,,,,,,,,,,920.7601009000009,None,920.7601009000009,None,right,1,0.9735259000008227,920.7601009000009,None,921.7644304000005,None,,,,,,,,,,,,,,,,,,,,,,,,,,,,,,,,,,0,001,2021_Feb_19_1507,cal_abstract,2020.2.10,60.00564053037298,
,,,,Fix1,stimuli/Old/14.jpg,right,,,,,,,,,,,,0,47,47,47,,,,,,,,,,,,,,,,,,,,,,,,,,,,,,,,,,,,,,,,1,,,,,,,,,,,,,,,,,922.6493843999997,None,922.6493843999997,None,right,1,1.2336692000008043,922.6493843999997,None,923.9008064000009,None,,,,,,,,,,,,,,,,,,,,,,,,,,,,,,,,,,0,001,2021_Feb_19_1507,cal_abstract,2020.2.10,60.00564053037298,
,,,,Cond,stimuli/Wealth/43.jpg,left,,,,,,,,,,,,0,48,48,48,,,,,,,,,,,,,,,,,,,,,,,,,,,,,,,,,,,,,,,,1,,,,,,,,,,,,,,,,,924.7387553000008,None,924.7387553000008,None,left,1,1.61453530000108,924.7387553000008,None,926.3846002999999,None,,,,,,,,,,,,,,,,,,,,,,,,,,,,,,,,,,0,001,2021_Feb_19_1507,cal_abstract,2020.2.10,60.00564053037298,
,,,,Fix2,stimuli/Healthy/41.jpg,left,,,,,,,,,,,,0,49,49,49,,,,,,,,,,,,,,,,,,,,,,,,,,,,,,,,,,,,,,,,1,,,,,,,,,,,,,,,,,927.1800124000001,None,927.1800124000001,None,left,1,1.2030728999998246,927.1800124000001,None,928.4041544000011,None,,,,,,,,,,,,,,,,,,,,,,,,,,,,,,,,,,0,001,2021_Feb_19_1507,cal_abstract,2020.2.10,60.00564053037298,
,,,,Cond,stimuli/Wealth/40.jpg,right,,,,,,,,,,,,0,50,50,50,,,,,,,,,,,,,,,,,,,,,,,,,,,,,,,,,,,,,,,,1,,,,,,,,,,,,,,,,,929.2162096000011,None,929.2162096000011,None,right,1,2.016725800000131,929.2162096000011,None,931.2565046,None,,,,,,,,,,,,,,,,,,,,,,,,,,,,,,,,,,0,001,2021_Feb_19_1507,cal_abstract,2020.2.10,60.00564053037298,
,,,,Fix1,stimuli/Old/43.jpg,right,,,,,,,,,,,,0,51,51,51,,,,,,,,,,,,,,,,,,,,,,,,,,,,,,,,,,,,,,,,1,,,,,,,,,,,,,,,,,932.0622291,None,932.0622291,None,right,1,1.1408835000002,932.0622291,None,933.2240242000007,None,,,,,,,,,,,,,,,,,,,,,,,,,,,,,,,,,,0,001,2021_Feb_19_1507,cal_abstract,2020.2.10,60.00564053037298,
,,,,Cond,stimuli/Wealth/44.jpg,left,,,,,,,,,,,,0,52,52,52,,,,,,,,,,,,,,,,,,,,,,,,,,,,,,,,,,,,,,,,1,,,,,,,,,,,,,,,,,934.0291761000008,None,934.0291761000008,None,left,1,1.3837791000005382,934.0291761000008,None,935.4410843999995,None,,,,,,,,,,,,,,,,,,,,,,,,,,,,,,,,,,0,001,2021_Feb_19_1507,cal_abstract,2020.2.10,60.00564053037298,
,,,,Fix1,stimuli/Old/10.jpg,right,,,,,,,,,,,,0,53,53,53,,,,,,,,,,,,,,,,,,,,,,,,,,,,,,,,,,,,,,,,1,,,,,,,,,,,,,,,,,936.2557006999996,None,936.2557006999996,None,right,1,0.7477288999998564,936.2557006999996,None,937.0263522000005,None,,,,,,,,,,,,,,,,,,,,,,,,,,,,,,,,,,0,001,2021_Feb_19_1507,cal_abstract,2020.2.10,60.00564053037298,
,,,,Fix1,stimuli/Old/3.jpg,right,,,,,,,,,,,,0,54,54,54,,,,,,,,,,,,,,,,,,,,,,,,,,,,,,,,,,,,,,,,1,,,,,,,,,,,,,,,,,937.8424785999996,None,937.8424785999996,None,right,1,3.0505949999987934,937.8424785999996,None,940.9126534999996,None,,,,,,,,,,,,,,,,,,,,,,,,,,,,,,,,,,0,001,2021_Feb_19_1507,cal_abstract,2020.2.10,60.00564053037298,
,,,,Cond,stimuli/Wealth/13.jpg,left,,,,,,,,,,,,0,55,55,55,,,,,,,,,,,,,,,,,,,,,,,,,,,,,,,,,,,,,,,,1,,,,,,,,,,,,,,,,,941.7300790000008,None,941.7300790000008,None,left,1,1.5127021000007517,941.7300790000008,None,943.2648879999997,None,,,,,,,,,,,,,,,,,,,,,,,,,,,,,,,,,,0,001,2021_Feb_19_1507,cal_abstract,2020.2.10,60.00564053037298,
,,,,Cond,stimuli/Wealth/14.jpg,right,,,,,,,,,,,,0,56,56,56,,,,,,,,,,,,,,,,,,,,,,,,,,,,,,,,,,,,,,,,1,,,,,,,,,,,,,,,,,944.0714855999995,None,944.0714855999995,None,right,1,2.081446700000015,944.0714855999995,None,946.1835781000009,None,,,,,,,,,,,,,,,,,,,,,,,,,,,,,,,,,,0,001,2021_Feb_19_1507,cal_abstract,2020.2.10,60.00564053037298,
,,,,Fix2,stimuli/Healthy/65.jpg,left,,,,,,,,,,,,0,57,57,57,,,,,,,,,,,,,,,,,,,,,,,,,,,,,,,,,,,,,,,,1,,,,,,,,,,,,,,,,,946.9884722000006,None,946.9884722000006,None,left,1,1.9551142000000254,946.9884722000006,None,948.9670986000001,None,,,,,,,,,,,,,,,,,,,,,,,,,,,,,,,,,,0,001,2021_Feb_19_1507,cal_abstract,2020.2.10,60.00564053037298,
,,,,Cond,stimuli/Wealth/45.jpg,right,,,,,,,,,,,,0,58,58,58,,,,,,,,,,,,,,,,,,,,,,,,,,,,,,,,,,,,,,,,1,,,,,,,,,,,,,,,,,949.7770985000006,None,949.7770985000006,None,right,1,1.0363147000007302,949.7770985000006,None,950.8357113000002,None,,,,,,,,,,,,,,,,,,,,,,,,,,,,,,,,,,0,001,2021_Feb_19_1507,cal_abstract,2020.2.10,60.00564053037298,
,,,,Cond,stimuli/Wealth/31.jpg,left,,,,,,,,,,,,0,59,59,59,,,,,,,,,,,,,,,,,,,,,,,,,,,,,,,,,,,,,,,,0,,,,,,,,,,,,,,,,,951.6424485999996,None,951.6424485999996,None,right,0,0.9703620999989653,951.6424485999996,None,952.6565017000012,None,,,,,,,,,,,,,,,,,,,,,,,,,,,,,,,,,,0,001,2021_Feb_19_1507,cal_abstract,2020.2.10,60.00564053037298,
,,,,Cond,stimuli/Wealth/46.jpg,right,,,,,,,,,,,,0,60,60,60,,,,,,,,,,,,,,,,,,,,,,,,,,,,,,,,,,,,,,,,0,,,,,,,,,,,,,,,,,953.4451621999997,None,953.4451621999997,None,left,0,1.078308799998922,953.4451621999997,None,954.5564214000005,None,,,,,,,,,,,,,,,,,,,,,,,,,,,,,,,,,,0,001,2021_Feb_19_1507,cal_abstract,2020.2.10,60.00564053037298,
,,,,Cond,stimuli/Wealth/52.jpg,left,,,,,,,,,,,,0,61,61,61,,,,,,,,,,,,,,,,,,,,,,,,,,,,,,,,,,,,,,,,0,,,,,,,,,,,,,,,,,955.3963827000007,None,955.3963827000007,None,right,0,1.1767147000009572,955.3963827000007,None,956.6067098000003,None,,,,,,,,,,,,,,,,,,,,,,,,,,,,,,,,,,0,001,2021_Feb_19_1507,cal_abstract,2020.2.10,60.00564053037298,
,,,,Fix2,stimuli/Healthy/51.jpg,left,,,,,,,,,,,,0,62,62,62,,,,,,,,,,,,,,,,,,,,,,,,,,,,,,,,,,,,,,,,1,,,,,,,,,,,,,,,,,957.4157777,None,957.4157777,None,left,1,12.048504599999433,957.4157777,None,969.4991650000011,None,,,,,,,,,,,,,,,,,,,,,,,,,,,,,,,,,,0,001,2021_Feb_19_1507,cal_abstract,2020.2.10,60.00564053037298,
,,,,Fix2,stimuli/Healthy/32.jpg,left,,,,,,,,,,,,0,63,63,63,,,,,,,,,,,,,,,,,,,,,,,,,,,,,,,,,,,,,,,,1,,,,,,,,,,,,,,,,,970.2923855000008,None,970.2923855000008,None,left,1,0.8319665999988501,970.2923855000008,None,971.1497082999995,None,,,,,,,,,,,,,,,,,,,,,,,,,,,,,,,,,,0,001,2021_Feb_19_1507,cal_abstract,2020.2.10,60.00564053037298,
,,,,Fix2,stimuli/Healthy/45.jpg,left,,,,,,,,,,,,0,64,64,64,,,,,,,,,,,,,,,,,,,,,,,,,,,,,,,,,,,,,,,,1,,,,,,,,,,,,,,,,,971.9589981999998,None,971.9589981999998,None,left,1,0.705024400000184,971.9589981999998,None,972.6856554000005,None,,,,,,,,,,,,,,,,,,,,,,,,,,,,,,,,,,0,001,2021_Feb_19_1507,cal_abstract,2020.2.10,60.00564053037298,
,,,,Cond,stimuli/Wealth/19.jpg,right,,,,,,,,,,,,0,65,65,65,,,,,,,,,,,,,,,,,,,,,,,,,,,,,,,,,,,,,,,,1,,,,,,,,,,,,,,,,,973.4895606000009,None,973.4895606000009,None,right,1,1.0550942000008945,973.4895606000009,None,974.5697643000003,None,,,,,,,,,,,,,,,,,,,,,,,,,,,,,,,,,,0,001,2021_Feb_19_1507,cal_abstract,2020.2.10,60.00564053037298,
,,,,Fix1,stimuli/Old/8.jpg,right,,,,,,,,,,,,0,66,66,66,,,,,,,,,,,,,,,,,,,,,,,,,,,,,,,,,,,,,,,,1,,,,,,,,,,,,,,,,,975.3758428000001,None,975.3758428000001,None,right,1,1.1981407000002946,975.3758428000001,None,976.6031127999995,None,,,,,,,,,,,,,,,,,,,,,,,,,,,,,,,,,,0,001,2021_Feb_19_1507,cal_abstract,2020.2.10,60.00564053037298,
,,,,Cond,stimuli/Wealth/22.jpg,left,,,,,,,,,,,,0,67,67,67,,,,,,,,,,,,,,,,,,,,,,,,,,,,,,,,,,,,,,,,1,,,,,,,,,,,,,,,,,977.4403543999997,None,977.4403543999997,None,left,1,2.154047600000922,977.4403543999997,None,979.6224528000002,None,,,,,,,,,,,,,,,,,,,,,,,,,,,,,,,,,,0,001,2021_Feb_19_1507,cal_abstract,2020.2.10,60.00564053037298,
,,,,Cond,stimuli/Wealth/11.jpg,right,,,,,,,,,,,,0,68,68,68,,,,,,,,,,,,,,,,,,,,,,,,,,,,,,,,,,,,,,,,1,,,,,,,,,,,,,,,,,980.4212402000012,None,980.4212402000012,None,right,1,0.8631045000001905,980.4212402000012,None,981.3071350000009,None,,,,,,,,,,,,,,,,,,,,,,,,,,,,,,,,,,0,001,2021_Feb_19_1507,cal_abstract,2020.2.10,60.00564053037298,
,,,,Fix2,stimuli/Healthy/43.jpg,left,,,,,,,,,,,,0,69,69,69,,,,,,,,,,,,,,,,,,,,,,,,,,,,,,,,,,,,,,,,1,,,,,,,,,,,,,,,,,982.1180184000004,None,982.1180184000004,None,left,1,1.2059564999999566,982.1180184000004,None,983.3585187000008,None,,,,,,,,,,,,,,,,,,,,,,,,,,,,,,,,,,0,001,2021_Feb_19_1507,cal_abstract,2020.2.10,60.00564053037298,
,,,,Fix2,stimuli/Healthy/6.jpg,left,,,,,,,,,,,,0,70,70,70,,,,,,,,,,,,,,,,,,,,,,,,,,,,,,,,,,,,,,,,1,,,,,,,,,,,,,,,,,984.154177800001,None,984.154177800001,None,left,1,0.7601191000012477,984.154177800001,None,984.9435599999997,None,,,,,,,,,,,,,,,,,,,,,,,,,,,,,,,,,,0,001,2021_Feb_19_1507,cal_abstract,2020.2.10,60.00564053037298,
,,,,Fix1,stimuli/Old/21.jpg,right,,,,,,,,,,,,0,71,71,71,,,,,,,,,,,,,,,,,,,,,,,,,,,,,,,,,,,,,,,,1,,,,,,,,,,,,,,,,,985.7652930000004,None,985.7652930000004,None,right,1,0.7086603999996441,985.7652930000004,None,986.4946488999994,None,,,,,,,,,,,,,,,,,,,,,,,,,,,,,,,,,,0,001,2021_Feb_19_1507,cal_abstract,2020.2.10,60.00564053037298,
,,,,Fix2,stimuli/Healthy/9.jpg,left,,,,,,,,,,,,0,72,72,72,,,,,,,,,,,,,,,,,,,,,,,,,,,,,,,,,,,,,,,,1,,,,,,,,,,,,,,,,,987.3220461000001,None,987.3220461000001,None,left,1,0.7519087000000582,987.3220461000001,None,988.0970021000012,None,,,,,,,,,,,,,,,,,,,,,,,,,,,,,,,,,,0,001,2021_Feb_19_1507,cal_abstract,2020.2.10,60.00564053037298,
,,,,Cond,stimuli/Wealth/51.jpg,right,,,,,,,,,,,,0,73,73,73,,,,,,,,,,,,,,,,,,,,,,,,,,,,,,,,,,,,,,,,1,,,,,,,,,,,,,,,,,988.9394425999999,None,988.9394425999999,None,right,1,1.044766000000891,988.9394425999999,None,990.0121610999995,None,,,,,,,,,,,,,,,,,,,,,,,,,,,,,,,,,,0,001,2021_Feb_19_1507,cal_abstract,2020.2.10,60.00564053037298,
,,,,Fix1,stimuli/Old/54.jpg,right,,,,,,,,,,,,0,74,74,74,,,,,,,,,,,,,,,,,,,,,,,,,,,,,,,,,,,,,,,,1,,,,,,,,,,,,,,,,,990.8351053999995,None,990.8351053999995,None,right,1,0.8190815999987535,990.8351053999995,None,991.6810697000001,None,,,,,,,,,,,,,,,,,,,,,,,,,,,,,,,,,,0,001,2021_Feb_19_1507,cal_abstract,2020.2.10,60.00564053037298,
,,,,Fix2,stimuli/Healthy/53.jpg,left,,,,,,,,,,,,0,75,75,75,,,,,,,,,,,,,,,,,,,,,,,,,,,,,,,,,,,,,,,,1,,,,,,,,,,,,,,,,,992.4865181000005,None,992.4865181000005,None,left,1,0.8478025000003981,992.4865181000005,None,993.3637255000012,None,,,,,,,,,,,,,,,,,,,,,,,,,,,,,,,,,,0,001,2021_Feb_19_1507,cal_abstract,2020.2.10,60.00564053037298,
,,,,Cond,stimuli/Wealth/49.jpg,right,,,,,,,,,,,,0,76,76,76,,,,,,,,,,,,,,,,,,,,,,,,,,,,,,,,,,,,,,,,1,,,,,,,,,,,,,,,,,994.1519750999996,None,994.1519750999996,None,right,1,1.002400100000159,994.1519750999996,None,995.1834994000001,None,,,,,,,,,,,,,,,,,,,,,,,,,,,,,,,,,,0,001,2021_Feb_19_1507,cal_abstract,2020.2.10,60.00564053037298,
,,,,Fix1,stimuli/Old/0.jpg,right,,,,,,,,,,,,0,77,77,77,,,,,,,,,,,,,,,,,,,,,,,,,,,,,,,,,,,,,,,,1,,,,,,,,,,,,,,,,,995.9901375999998,None,995.9901375999998,None,right,1,0.7640193999995972,995.9901375999998,None,996.7851432000007,None,,,,,,,,,,,,,,,,,,,,,,,,,,,,,,,,,,0,001,2021_Feb_19_1507,cal_abstract,2020.2.10,60.00564053037298,
,,,,Cond,stimuli/Wealth/28.jpg,left,,,,,,,,,,,,0,78,78,78,,,,,,,,,,,,,,,,,,,,,,,,,,,,,,,,,,,,,,,,1,,,,,,,,,,,,,,,,,997.5983386000007,None,997.5983386000007,None,left,1,1.25582249999934,997.5983386000007,None,998.8852872999996,None,,,,,,,,,,,,,,,,,,,,,,,,,,,,,,,,,,0,001,2021_Feb_19_1507,cal_abstract,2020.2.10,60.00564053037298,
,,,,Cond,stimuli/Wealth/20.jpg,right,,,,,,,,,,,,0,79,79,79,,,,,,,,,,,,,,,,,,,,,,,,,,,,,,,,,,,,,,,,1,,,,,,,,,,,,,,,,,999.6949050000003,None,999.6949050000003,None,right,1,0.8005532000006497,999.6949050000003,None,1000.5201384000011,None,,,,,,,,,,,,,,,,,,,,,,,,,,,,,,,,,,0,001,2021_Feb_19_1507,cal_abstract,2020.2.10,60.00564053037298,
,,,,Fix1,stimuli/Old/47.jpg,right,,,,,,,,,,,,0,80,80,80,,,,,,,,,,,,,,,,,,,,,,,,,,,,,,,,,,,,,,,,1,,,,,,,,,,,,,,,,,1001.3302201000006,None,1001.3302201000006,None,right,1,1.1748186999993777,1001.3302201000006,None,1002.5369373000012,None,,,,,,,,,,,,,,,,,,,,,,,,,,,,,,,,,,0,001,2021_Feb_19_1507,cal_abstract,2020.2.10,60.00564053037298,
,,,,Cond,stimuli/Wealth/55.jpg,left,,,,,,,,,,,,0,81,81,81,,,,,,,,,,,,,,,,,,,,,,,,,,,,,,,,,,,,,,,,1,,,,,,,,,,,,,,,,,1003.3438523000004,None,1003.3438523000004,None,left,1,1.6411011000000144,1003.3438523000004,None,1005.0068762999999,None,,,,,,,,,,,,,,,,,,,,,,,,,,,,,,,,,,0,001,2021_Feb_19_1507,cal_abstract,2020.2.10,60.00564053037298,
,,,,Cond,stimuli/Wealth/37.jpg,right,,,,,,,,,,,,0,82,82,82,,,,,,,,,,,,,,,,,,,,,,,,,,,,,,,,,,,,,,,,1,,,,,,,,,,,,,,,,,1005.8123166000005,None,1005.8123166000005,None,right,1,0.8726048999997147,1005.8123166000005,None,1006.7082393000001,None,,,,,,,,,,,,,,,,,,,,,,,,,,,,,,,,,,0,001,2021_Feb_19_1507,cal_abstract,2020.2.10,60.00564053037298,
,,,,Fix2,stimuli/Healthy/3.jpg,left,,,,,,,,,,,,0,83,83,83,,,,,,,,,,,,,,,,,,,,,,,,,,,,,,,,,,,,,,,,1,,,,,,,,,,,,,,,,,1007.5135114000004,None,1007.5135114000004,None,left,1,0.8017784999992728,1007.5135114000004,None,1008.3450723000005,None,,,,,,,,,,,,,,,,,,,,,,,,,,,,,,,,,,0,001,2021_Feb_19_1507,cal_abstract,2020.2.10,60.00564053037298,
,,,,Fix1,stimuli/Old/16.jpg,right,,,,,,,,,,,,0,84,84,84,,,,,,,,,,,,,,,,,,,,,,,,,,,,,,,,,,,,,,,,1,,,,,,,,,,,,,,,,,1009.1476251000004,None,1009.1476251000004,None,right,1,0.5978527999996004,1009.1476251000004,None,1009.7764938,None,,,,,,,,,,,,,,,,,,,,,,,,,,,,,,,,,,0,001,2021_Feb_19_1507,cal_abstract,2020.2.10,60.00564053037298,
,,,,Fix2,stimuli/Healthy/33.jpg,left,,,,,,,,,,,,0,85,85,85,,,,,,,,,,,,,,,,,,,,,,,,,,,,,,,,,,,,,,,,1,,,,,,,,,,,,,,,,,1010.5901556999997,None,1010.5901556999997,None,left,1,0.7247750000005908,1010.5901556999997,None,1011.3443113000012,None,,,,,,,,,,,,,,,,,,,,,,,,,,,,,,,,,,0,001,2021_Feb_19_1507,cal_abstract,2020.2.10,60.00564053037298,
,,,,Fix1,stimuli/Old/48.jpg,right,,,,,,,,,,,,0,86,86,86,,,,,,,,,,,,,,,,,,,,,,,,,,,,,,,,,,,,,,,,1,,,,,,,,,,,,,,,,,1012.1540344000005,None,1012.1540344000005,None,right,1,6.911251199999242,1012.1540344000005,None,1019.1020788000005,None,,,,,,,,,,,,,,,,,,,,,,,,,,,,,,,,,,0,001,2021_Feb_19_1507,cal_abstract,2020.2.10,60.00564053037298,
,,,,Fix1,stimuli/Old/39.jpg,right,,,,,,,,,,,,0,87,87,87,,,,,,,,,,,,,,,,,,,,,,,,,,,,,,,,,,,,,,,,1,,,,,,,,,,,,,,,,,1019.9090706999996,None,1019.9090706999996,None,right,1,1.306005800001003,1019.9090706999996,None,1021.2354500000001,None,,,,,,,,,,,,,,,,,,,,,,,,,,,,,,,,,,0,001,2021_Feb_19_1507,cal_abstract,2020.2.10,60.00564053037298,
,,,,Fix1,stimuli/Old/18.jpg,right,,,,,,,,,,,,0,88,88,88,,,,,,,,,,,,,,,,,,,,,,,,,,,,,,,,,,,,,,,,1,,,,,,,,,,,,,,,,,1022.0531855000008,None,1022.0531855000008,None,right,1,1.2616907000010542,1022.0531855000008,None,1023.3363079999999,None,,,,,,,,,,,,,,,,,,,,,,,,,,,,,,,,,,0,001,2021_Feb_19_1507,cal_abstract,2020.2.10,60.00564053037298,
,,,,Fix1,stimuli/Old/13.jpg,right,,,,,,,,,,,,0,89,89,89,,,,,,,,,,,,,,,,,,,,,,,,,,,,,,,,,,,,,,,,1,,,,,,,,,,,,,,,,,1024.1490734,None,1024.1490734,None,right,1,1.4358413999998447,1024.1490734,None,1025.6042947000005,None,,,,,,,,,,,,,,,,,,,,,,,,,,,,,,,,,,0,001,2021_Feb_19_1507,cal_abstract,2020.2.10,60.00564053037298,
,,,,Fix2,stimuli/Healthy/57.jpg,left,,,,,,,,,,,,0,90,90,90,,,,,,,,,,,,,,,,,,,,,,,,,,,,,,,,,,,,,,,,1,,,,,,,,,,,,,,,,,1026.4045019000005,None,1026.4045019000005,None,left,1,1.3409733999997115,1026.4045019000005,None,1027.7713783,None,,,,,,,,,,,,,,,,,,,,,,,,,,,,,,,,,,0,001,2021_Feb_19_1507,cal_abstract,2020.2.10,60.00564053037298,
,,,,Fix2,stimuli/Healthy/19.jpg,left,,,,,,,,,,,,0,91,91,91,,,,,,,,,,,,,,,,,,,,,,,,,,,,,,,,,,,,,,,,1,,,,,,,,,,,,,,,,,1028.5955348999996,None,1028.5955348999996,None,left,1,0.6999122000015632,1028.5955348999996,None,1029.3235991000001,None,,,,,,,,,,,,,,,,,,,,,,,,,,,,,,,,,,0,001,2021_Feb_19_1507,cal_abstract,2020.2.10,60.00564053037298,
,,,,Fix2,stimuli/Healthy/21.jpg,left,,,,,,,,,,,,0,92,92,92,,,,,,,,,,,,,,,,,,,,,,,,,,,,,,,,,,,,,,,,1,,,,,,,,,,,,,,,,,1030.2029426000008,None,1030.2029426000008,None,left,1,1.5434915000005276,1030.2029426000008,None,1031.7754206000009,None,,,,,,,,,,,,,,,,,,,,,,,,,,,,,,,,,,0,001,2021_Feb_19_1507,cal_abstract,2020.2.10,60.00564053037298,
,,,,Fix2,stimuli/Healthy/0.jpg,left,,,,,,,,,,,,0,93,93,93,,,,,,,,,,,,,,,,,,,,,,,,,,,,,,,,,,,,,,,,1,,,,,,,,,,,,,,,,,1032.5913519000005,None,1032.5913519000005,None,left,1,0.6434774000008474,1032.5913519000005,None,1033.2596586,None,,,,,,,,,,,,,,,,,,,,,,,,,,,,,,,,,,0,001,2021_Feb_19_1507,cal_abstract,2020.2.10,60.00564053037298,
,,,,Fix1,stimuli/Old/35.jpg,right,,,,,,,,,,,,0,94,94,94,,,,,,,,,,,,,,,,,,,,,,,,,,,,,,,,,,,,,,,,1,,,,,,,,,,,,,,,,,1034.0763875000011,None,1034.0763875000011,None,right,1,0.5989840000002005,1034.0763875000011,None,1034.6948470000007,None,,,,,,,,,,,,,,,,,,,,,,,,,,,,,,,,,,0,001,2021_Feb_19_1507,cal_abstract,2020.2.10,60.00564053037298,
,,,,Fix2,stimuli/Healthy/56.jpg,left,,,,,,,,,,,,0,95,95,95,,,,,,,,,,,,,,,,,,,,,,,,,,,,,,,,,,,,,,,,1,,,,,,,,,,,,,,,,,1035.501392600001,None,1035.501392600001,None,left,1,1.3340581000011298,1035.501392600001,None,1036.8627352000003,None,,,,,,,,,,,,,,,,,,,,,,,,,,,,,,,,,,0,001,2021_Feb_19_1507,cal_abstract,2020.2.10,60.00564053037298,
,,,,Cond,stimuli/Wealth/35.jpg,right,,,,,,,,,,,,0,96,96,96,,,,,,,,,,,,,,,,,,,,,,,,,,,,,,,,,,,,,,,,1,,,,,,,,,,,,,,,,,1037.6775247999994,None,1037.6775247999994,None,right,1,1.1574820000005275,1037.6775247999994,None,1038.8634362000012,None,,,,,,,,,,,,,,,,,,,,,,,,,,,,,,,,,,0,001,2021_Feb_19_1507,cal_abstract,2020.2.10,60.00564053037298,
,,,,Fix1,stimuli/Old/23.jpg,right,,,,,,,,,,,,0,97,97,97,,,,,,,,,,,,,,,,,,,,,,,,,,,,,,,,,,,,,,,,1,,,,,,,,,,,,,,,,,1039.6685381999996,None,1039.6685381999996,None,right,1,0.8176105999991705,1039.6685381999996,None,1040.5150618999996,None,,,,,,,,,,,,,,,,,,,,,,,,,,,,,,,,,,0,001,2021_Feb_19_1507,cal_abstract,2020.2.10,60.00564053037298,
,,,,Cond,stimuli/Wealth/42.jpg,left,,,,,,,,,,,,0,98,98,98,,,,,,,,,,,,,,,,,,,,,,,,,,,,,,,,,,,,,,,,1,,,,,,,,,,,,,,,,,1041.3155575,None,1041.3155575,None,left,1,0.9106041999984882,1041.3155575,None,1042.2488262000006,None,,,,,,,,,,,,,,,,,,,,,,,,,,,,,,,,,,0,001,2021_Feb_19_1507,cal_abstract,2020.2.10,60.00564053037298,
,,,,Fix2,stimuli/Healthy/24.jpg,left,,,,,,,,,,,,0,99,99,99,,,,,,,,,,,,,,,,,,,,,,,,,,,,,,,,,,,,,,,,1,,,,,,,,,,,,,,,,,1043.074716000001,None,1043.074716000001,None,left,1,0.6613424999995914,1043.074716000001,None,1043.7694138000006,None,,,,,,,,,,,,,,,,,,,,,,,,,,,,,,,,,,0,001,2021_Feb_19_1507,cal_abstract,2020.2.10,60.00564053037298,
,,,,Cond,stimuli/Wealth/54.jpg,right,,,,,,,,,,,,0,100,100,100,,,,,,,,,,,,,,,,,,,,,,,,,,,,,,,,,,,,,,,,1,,,,,,,,,,,,,,,,,1044.5844851000002,None,1044.5844851000002,None,right,1,1.4421328999997058,1044.5844851000002,None,1046.0518869000007,None,,,,,,,,,,,,,,,,,,,,,,,,,,,,,,,,,,0,001,2021_Feb_19_1507,cal_abstract,2020.2.10,60.00564053037298,
,,,,Cond,stimuli/Wealth/4.jpg,left,,,,,,,,,,,,0,101,101,101,,,,,,,,,,,,,,,,,,,,,,,,,,,,,,,,,,,,,,,,0,,,,,,,,,,,,,,,,,1046.8543630000004,None,1046.8543630000004,None,right,0,0.8017999000003329,1046.8543630000004,None,1047.7043685000008,None,,,,,,,,,,,,,,,,,,,,,,,,,,,,,,,,,,0,001,2021_Feb_19_1507,cal_abstract,2020.2.10,60.00564053037298,
,,,,Fix2,stimuli/Healthy/48.jpg,left,,,,,,,,,,,,0,102,102,102,,,,,,,,,,,,,,,,,,,,,,,,,,,,,,,,,,,,,,,,1,,,,,,,,,,,,,,,,,1048.4951214000012,None,1048.4951214000012,None,left,1,1.3411391000008734,1048.4951214000012,None,1049.887097500001,None,,,,,,,,,,,,,,,,,,,,,,,,,,,,,,,,,,0,001,2021_Feb_19_1507,cal_abstract,2020.2.10,60.00564053037298,
,,,,Fix2,stimuli/Healthy/15.jpg,left,,,,,,,,,,,,0,103,103,103,,,,,,,,,,,,,,,,,,,,,,,,,,,,,,,,,,,,,,,,1,,,,,,,,,,,,,,,,,1050.6788249,None,1050.6788249,None,left,1,1.506990300000325,1050.6788249,None,1052.209224100001,None,,,,,,,,,,,,,,,,,,,,,,,,,,,,,,,,,,0,001,2021_Feb_19_1507,cal_abstract,2020.2.10,60.00564053037298,
,,,,Cond,stimuli/Wealth/38.jpg,right,,,,,,,,,,,,0,104,104,104,,,,,,,,,,,,,,,,,,,,,,,,,,,,,,,,,,,,,,,,1,,,,,,,,,,,,,,,,,1053.0092657000005,None,1053.0092657000005,None,right,1,1.357078899998669,1053.0092657000005,None,1054.390537700001,None,,,,,,,,,,,,,,,,,,,,,,,,,,,,,,,,,,0,001,2021_Feb_19_1507,cal_abstract,2020.2.10,60.00564053037298,
,,,,Cond,stimuli/Wealth/21.jpg,left,,,,,,,,,,,,0,105,105,105,,,,,,,,,,,,,,,,,,,,,,,,,,,,,,,,,,,,,,,,1,,,,,,,,,,,,,,,,,1055.1909766999997,None,1055.1909766999997,None,left,1,0.9649650000010297,1055.1909766999997,None,1056.1759456,None,,,,,,,,,,,,,,,,,,,,,,,,,,,,,,,,,,0,001,2021_Feb_19_1507,cal_abstract,2020.2.10,60.00564053037298,
,,,,Fix2,stimuli/Healthy/36.jpg,left,,,,,,,,,,,,0,106,106,106,,,,,,,,,,,,,,,,,,,,,,,,,,,,,,,,,,,,,,,,1,,,,,,,,,,,,,,,,,1056.978941200001,None,1056.978941200001,None,left,1,1.1880936000015936,1056.978941200001,None,1058.194300000001,None,,,,,,,,,,,,,,,,,,,,,,,,,,,,,,,,,,0,001,2021_Feb_19_1507,cal_abstract,2020.2.10,60.00564053037298,
,,,,Fix1,stimuli/Old/12.jpg,right,,,,,,,,,,,,0,107,107,107,,,,,,,,,,,,,,,,,,,,,,,,,,,,,,,,,,,,,,,,1,,,,,,,,,,,,,,,,,1059.0231925000007,None,1059.0231925000007,None,right,1,0.9928809000011825,1059.0231925000007,None,1060.0434108000009,None,,,,,,,,,,,,,,,,,,,,,,,,,,,,,,,,,,0,001,2021_Feb_19_1507,cal_abstract,2020.2.10,60.00564053037298,
,,,,Fix2,stimuli/Healthy/69.jpg,left,,,,,,,,,,,,0,108,108,108,,,,,,,,,,,,,,,,,,,,,,,,,,,,,,,,,,,,,,,,1,,,,,,,,,,,,,,,,,1060.8484198000006,None,1060.8484198000006,None,left,1,2.4274360000017623,1060.8484198000006,None,1063.2979097000007,None,,,,,,,,,,,,,,,,,,,,,,,,,,,,,,,,,,0,001,2021_Feb_19_1507,cal_abstract,2020.2.10,60.00564053037298,
,,,,Fix2,stimuli/Healthy/30.jpg,left,,,,,,,,,,,,0,109,109,109,,,,,,,,,,,,,,,,,,,,,,,,,,,,,,,,,,,,,,,,1,,,,,,,,,,,,,,,,,1064.1046891000005,None,1064.1046891000005,None,left,1,0.6313818999988143,1064.1046891000005,None,1064.7647240000006,None,,,,,,,,,,,,,,,,,,,,,,,,,,,,,,,,,,0,001,2021_Feb_19_1507,cal_abstract,2020.2.10,60.00564053037298,
,,,,Cond,stimuli/Wealth/23.jpg,right,,,,,,,,,,,,0,110,110,110,,,,,,,,,,,,,,,,,,,,,,,,,,,,,,,,,,,,,,,,1,,,,,,,,,,,,,,,,,1065.5721892000001,None,1065.5721892000001,None,right,1,1.253929500000595,1065.5721892000001,None,1066.8477748000005,None,,,,,,,,,,,,,,,,,,,,,,,,,,,,,,,,,,0,001,2021_Feb_19_1507,cal_abstract,2020.2.10,60.00564053037298,
,,,,Fix1,stimuli/Old/9.jpg,right,,,,,,,,,,,,0,111,111,111,,,,,,,,,,,,,,,,,,,,,,,,,,,,,,,,,,,,,,,,1,,,,,,,,,,,,,,,,,1067.658900800001,None,1067.658900800001,None,right,1,0.6674599999987549,1067.658900800001,None,1068.3504439000008,None,,,,,,,,,,,,,,,,,,,,,,,,,,,,,,,,,,0,001,2021_Feb_19_1507,cal_abstract,2020.2.10,60.00564053037298,
,,,,Fix1,stimuli/Old/50.jpg,right,,,,,,,,,,,,0,112,112,112,,,,,,,,,,,,,,,,,,,,,,,,,,,,,,,,,,,,,,,,1,,,,,,,,,,,,,,,,,1069.1515049999998,None,1069.1515049999998,None,right,1,0.6647956999986491,1069.1515049999998,None,1069.8353660000012,None,,,,,,,,,,,,,,,,,,,,,,,,,,,,,,,,,,0,001,2021_Feb_19_1507,cal_abstract,2020.2.10,60.00564053037298,
,,,,Fix1,stimuli/Old/5.jpg,right,,,,,,,,,,,,0,113,113,113,,,,,,,,,,,,,,,,,,,,,,,,,,,,,,,,,,,,,,,,1,,,,,,,,,,,,,,,,,1070.6487792000007,None,1070.6487792000007,None,right,1,0.6974233000000822,1070.6487792000007,None,1071.3709775999996,None,,,,,,,,,,,,,,,,,,,,,,,,,,,,,,,,,,0,001,2021_Feb_19_1507,cal_abstract,2020.2.10,60.00564053037298,
,,,,Fix1,stimuli/Old/57.jpg,right,,,,,,,,,,,,0,114,114,114,,,,,,,,,,,,,,,,,,,,,,,,,,,,,,,,,,,,,,,,1,,,,,,,,,,,,,,,,,1072.1746617000008,None,1072.1746617000008,None,right,1,0.9410972999994556,1072.1746617000008,None,1073.1391237000007,None,,,,,,,,,,,,,,,,,,,,,,,,,,,,,,,,,,0,001,2021_Feb_19_1507,cal_abstract,2020.2.10,60.00564053037298,
,,,,Cond,stimuli/Wealth/15.jpg,left,,,,,,,,,,,,0,115,115,115,,,,,,,,,,,,,,,,,,,,,,,,,,,,,,,,,,,,,,,,1,,,,,,,,,,,,,,,,,1073.9361595999999,None,1073.9361595999999,None,left,1,0.9501792999999452,1073.9361595999999,None,1074.9050423999997,None,,,,,,,,,,,,,,,,,,,,,,,,,,,,,,,,,,0,001,2021_Feb_19_1507,cal_abstract,2020.2.10,60.00564053037298,
,,,,Fix1,stimuli/Old/26.jpg,right,,,,,,,,,,,,0,116,116,116,,,,,,,,,,,,,,,,,,,,,,,,,,,,,,,,,,,,,,,,1,,,,,,,,,,,,,,,,,1075.7049404999998,None,1075.7049404999998,None,right,1,0.7713764999989507,1075.7049404999998,None,1076.5057742999998,None,,,,,,,,,,,,,,,,,,,,,,,,,,,,,,,,,,0,001,2021_Feb_19_1507,cal_abstract,2020.2.10,60.00564053037298,
,,,,Cond,stimuli/Wealth/47.jpg,left,,,,,,,,,,,,0,117,117,117,,,,,,,,,,,,,,,,,,,,,,,,,,,,,,,,,,,,,,,,1,,,,,,,,,,,,,,,,,1077.3097699999998,None,1077.3097699999998,None,left,1,2.666119899999103,1077.3097699999998,None,1080.0072717000003,None,,,,,,,,,,,,,,,,,,,,,,,,,,,,,,,,,,0,001,2021_Feb_19_1507,cal_abstract,2020.2.10,60.00564053037298,
,,,,Cond,stimuli/Wealth/30.jpg,right,,,,,,,,,,,,0,118,118,118,,,,,,,,,,,,,,,,,,,,,,,,,,,,,,,,,,,,,,,,1,,,,,,,,,,,,,,,,,1080.8282906000004,None,1080.8282906000004,None,right,1,0.8788395000010496,1080.8282906000004,None,1081.7270921,None,,,,,,,,,,,,,,,,,,,,,,,,,,,,,,,,,,0,001,2021_Feb_19_1507,cal_abstract,2020.2.10,60.00564053037298,
,,,,Cond,stimuli/Wealth/36.jpg,left,,,,,,,,,,,,0,119,119,119,,,,,,,,,,,,,,,,,,,,,,,,,,,,,,,,,,,,,,,,1,,,,,,,,,,,,,,,,,1082.5360025999998,None,1082.5360025999998,None,left,1,0.7512404000008246,1082.5360025999998,None,1083.3105078000008,None,,,,,,,,,,,,,,,,,,,,,,,,,,,,,,,,,,0,001,2021_Feb_19_1507,cal_abstract,2020.2.10,60.00564053037298,
,,,,Fix1,stimuli/Old/11.jpg,right,,,,,,,,,,,,0,120,120,120,,,,,,,,,,,,,,,,,,,,,,,,,,,,,,,,,,,,,,,,1,,,,,,,,,,,,,,,,,1084.1200909,None,1084.1200909,None,right,1,0.8470109000008961,1084.1200909,None,1084.9950155000006,None,,,,,,,,,,,,,,,,,,,,,,,,,,,,,,,,,,0,001,2021_Feb_19_1507,cal_abstract,2020.2.10,60.00564053037298,
,,,,Cond,stimuli/Wealth/34.jpg,left,,,,,,,,,,,,0,121,121,121,,,,,,,,,,,,,,,,,,,,,,,,,,,,,,,,,,,,,,,,1,,,,,,,,,,,,,,,,,1085.8849998999995,None,1085.8849998999995,None,left,1,0.8423402000007627,1085.8849998999995,None,1086.7467250999998,None,,,,,,,,,,,,,,,,,,,,,,,,,,,,,,,,,,0,001,2021_Feb_19_1507,cal_abstract,2020.2.10,60.00564053037298,
,,,,Fix2,stimuli/Healthy/46.jpg,left,,,,,,,,,,,,0,122,122,122,,,,,,,,,,,,,,,,,,,,,,,,,,,,,,,,,,,,,,,,1,,,,,,,,,,,,,,,,,1087.5504808999995,None,1087.5504808999995,None,left,1,0.7465283000001364,1087.5504808999995,None,1088.3301207000004,None,,,,,,,,,,,,,,,,,,,,,,,,,,,,,,,,,,0,001,2021_Feb_19_1507,cal_abstract,2020.2.10,60.00564053037298,
,,,,Fix1,stimuli/Old/32.jpg,right,,,,,,,,,,,,0,123,123,123,,,,,,,,,,,,,,,,,,,,,,,,,,,,,,,,,,,,,,,,1,,,,,,,,,,,,,,,,,1089.1416612000012,None,1089.1416612000012,None,right,1,0.6953188000006776,1089.1416612000012,None,1089.8658747000009,None,,,,,,,,,,,,,,,,,,,,,,,,,,,,,,,,,,0,001,2021_Feb_19_1507,cal_abstract,2020.2.10,60.00564053037298,
,,,,Cond,stimuli/Wealth/48.jpg,left,,,,,,,,,,,,0,124,124,124,,,,,,,,,,,,,,,,,,,,,,,,,,,,,,,,,,,,,,,,1,,,,,,,,,,,,,,,,,1090.6782371000008,None,1090.6782371000008,None,left,1,2.4896103000010044,1090.6782371000008,None,1093.1983262000012,None,,,,,,,,,,,,,,,,,,,,,,,,,,,,,,,,,,0,001,2021_Feb_19_1507,cal_abstract,2020.2.10,60.00564053037298,
,,,,Fix1,stimuli/Old/27.jpg,right,,,,,,,,,,,,0,125,125,125,,,,,,,,,,,,,,,,,,,,,,,,,,,,,,,,,,,,,,,,1,,,,,,,,,,,,,,,,,1093.9882249000002,None,1093.9882249000002,None,right,1,2.828778199998851,1093.9882249000002,None,1096.8367053000002,None,,,,,,,,,,,,,,,,,,,,,,,,,,,,,,,,,,0,001,2021_Feb_19_1507,cal_abstract,2020.2.10,60.00564053037298,
,,,,Cond,stimuli/Wealth/29.jpg,left,,,,,,,,,,,,0,126,126,126,,,,,,,,,,,,,,,,,,,,,,,,,,,,,,,,,,,,,,,,1,,,,,,,,,,,,,,,,,1097.6378349000006,None,1097.6378349000006,None,left,1,0.8790811999988364,1097.6378349000006,None,1098.5386049999997,None,,,,,,,,,,,,,,,,,,,,,,,,,,,,,,,,,,0,001,2021_Feb_19_1507,cal_abstract,2020.2.10,60.00564053037298,
,,,,Fix1,stimuli/Old/42.jpg,right,,,,,,,,,,,,0,127,127,127,,,,,,,,,,,,,,,,,,,,,,,,,,,,,,,,,,,,,,,,1,,,,,,,,,,,,,,,,,1099.3567652000002,None,1099.3567652000002,None,right,1,3.1505270000016026,1099.3567652000002,None,1102.5392228,None,,,,,,,,,,,,,,,,,,,,,,,,,,,,,,,,,,0,001,2021_Feb_19_1507,cal_abstract,2020.2.10,60.00564053037298,
,,,,Fix1,stimuli/Old/4.jpg,right,,,,,,,,,,,,0,128,128,128,,,,,,,,,,,,,,,,,,,,,,,,,,,,,,,,,,,,,,,,1,,,,,,,,,,,,,,,,,1103.3504289000011,None,1103.3504289000011,None,right,1,0.6567327000011574,1103.3504289000011,None,1104.0245672,None,,,,,,,,,,,,,,,,,,,,,,,,,,,,,,,,,,0,001,2021_Feb_19_1507,cal_abstract,2020.2.10,60.00564053037298,
,,,,Fix2,stimuli/Healthy/31.jpg,left,,,,,,,,,,,,0,129,129,129,,,,,,,,,,,,,,,,,,,,,,,,,,,,,,,,,,,,,,,,1,,,,,,,,,,,,,,,,,1104.8375821999998,None,1104.8375821999998,None,left,1,1.8595077000009042,1104.8375821999998,None,1106.727530600001,None,,,,,,,,,,,,,,,,,,,,,,,,,,,,,,,,,,0,001,2021_Feb_19_1507,cal_abstract,2020.2.10,60.00564053037298,
,,,,Cond,stimuli/Wealth/18.jpg,right,,,,,,,,,,,,0,130,130,130,,,,,,,,,,,,,,,,,,,,,,,,,,,,,,,,,,,,,,,,1,,,,,,,,,,,,,,,,,1107.5362848000004,None,1107.5362848000004,None,right,1,2.7911949999997887,1107.5362848000004,None,1110.3459612999995,None,,,,,,,,,,,,,,,,,,,,,,,,,,,,,,,,,,0,001,2021_Feb_19_1507,cal_abstract,2020.2.10,60.00564053037298,
,,,,Fix2,stimuli/Healthy/52.jpg,left,,,,,,,,,,,,0,131,131,131,,,,,,,,,,,,,,,,,,,,,,,,,,,,,,,,,,,,,,,,1,,,,,,,,,,,,,,,,,1111.1576860000005,None,1111.1576860000005,None,left,1,0.8796806000009383,1111.1576860000005,None,1112.0638393999998,None,,,,,,,,,,,,,,,,,,,,,,,,,,,,,,,,,,0,001,2021_Feb_19_1507,cal_abstract,2020.2.10,60.00564053037298,
,,,,Fix1,stimuli/Old/52.jpg,right,,,,,,,,,,,,0,132,132,132,,,,,,,,,,,,,,,,,,,,,,,,,,,,,,,,,,,,,,,,1,,,,,,,,,,,,,,,,,1112.8674377999996,None,1112.8674377999996,None,right,1,1.019553599999199,1112.8674377999996,None,1113.9192158000005,None,,,,,,,,,,,,,,,,,,,,,,,,,,,,,,,,,,0,001,2021_Feb_19_1507,cal_abstract,2020.2.10,60.00564053037298,
