Text,Block1Type,Block1Stim,Block1Corr,Block2Type,Block2Stim,Block2Corr,Block3Type,Block3Stim,Block3Corr,Instruction_loop.thisRepN,Instruction_loop.thisTrialN,Instruction_loop.thisN,Instruction_loop.thisIndex,Block1_loop.thisRepN,Block1_loop.thisTrialN,Block1_loop.thisN,Block1_loop.thisIndex,Block2_loop.thisRepN,Block2_loop.thisTrialN,Block2_loop.thisN,Block2_loop.thisIndex,Block3_loop.thisRepN,Block3_loop.thisTrialN,Block3_loop.thisN,Block3_loop.thisIndex,welcome_text1.started,welcome_text1.stopped,welcome_text2.started,welcome_text2.stopped,welcome_text3.started,welcome_text3.stopped,welcome_resp.keys,welcome_resp.rt,welcome_resp.started,welcome_resp.stopped,instruct_text1.started,instruct_text1.stopped,instruct_text2.started,instruct_text2.stopped,instruct_resp1.keys,instruct_resp1.rt,instruct_resp1.started,instruct_resp1.stopped,start_text1.started,start_text1.stopped,start_text2.started,start_text2.stopped,start_resp1.keys,start_resp1.rt,start_resp1.started,start_resp1.stopped,image1.started,image1.stopped,text1.started,text1.stopped,key_resp1.keys,key_resp1.corr,key_resp1.rt,key_resp1.started,key_resp1.stopped,trialCorrect,feedback_text1.started,feedback_text1.stopped,break_text1.started,break_text1.stopped,break_resp1.keys,break_resp1.rt,break_resp1.started,break_resp1.stopped,intructRemind_text1.started,intructRemind_text1.stopped,instructRemind_text2.started,instructRemind_text2.stopped,instructRemind_resp1.keys,instructRemind_resp1.rt,instructRemind_resp1.started,instructRemind_resp1.stopped,start_text3.started,start_text3.stopped,start_text4.started,start_text4.stopped,start_resp2.keys,start_resp2.rt,start_resp2.started,start_resp2.stopped,image2.started,image2.stopped,text2.started,text2.stopped,key_resp2.keys,key_resp2.corr,key_resp2.rt,key_resp2.started,key_resp2.stopped,feedback_text2.started,feedback_text2.stopped,break_text2.started,break_text2.stopped,break_resp2.keys,break_resp2.rt,break_resp2.started,break_resp2.stopped,start_text5.started,start_text5.stopped,start_text6.started,start_text6.stopped,start_resp3.keys,start_resp3.rt,start_resp3.started,start_resp3.stopped,image3.started,image3.stopped,text3.started,text3.stopped,key_resp3.keys,key_resp3.corr,key_resp3.rt,key_resp3.started,key_resp3.stopped,feedback_text3.started,feedback_text3.stopped,end_text1.started,end_text1.stopped,end_text2.started,end_text2.stopped,end_resp.keys,end_resp.rt,end_resp.started,end_resp.stopped,participant,sex,age,session,date,expName,psychopyVersion,frameRate,
,,,,,,,,,,,,,,,,,,,,,,,,,,114.3312080996111,None,114.3312080996111,None,114.3312080996111,None,return,12.956063400022686,114.3312080996111,None,,,,,,,,,,,,,,,,,,,,,,,,,,,,,,,,,,,,,,,,,,,,,,,,,,,,,,,,,,,,,,,,,,,,,,,,,,,,,,,,,,,,,,,,,,,,,,,40,Female,23,001,2021_Mar_10_1809,cal_abstract,2020.2.4,60.00412825957584,
"You will be presented with a series of images. It is your job to learn, through trial and error, whether the “Left” or “Right” arrow key should be pressed for each image.",,,,,,,,,,0,0,0,0,,,,,,,,,,,,,,,,,,,,,,,127.49916430003941,None,127.49916430003941,None,return,2.1473567001521587,127.49916430003941,None,,,,,,,,,,,,,,,,,,,,,,,,,,,,,,,,,,,,,,,,,,,,,,,,,,,,,,,,,,,,,,,,,,,,,,,,,,,,,,,,,,,,,,,40,Female,23,001,2021_Mar_10_1809,cal_abstract,2020.2.4,60.00412825957584,
"For some images you should always press “Left”, and for others you should always press “Right” arrow key.",,,,,,,,,,0,1,1,1,,,,,,,,,,,,,,,,,,,,,,,129.67550499970093,None,129.67550499970093,None,return,0.47754629980772734,129.67550499970093,None,,,,,,,,,,,,,,,,,,,,,,,,,,,,,,,,,,,,,,,,,,,,,,,,,,,,,,,,,,,,,,,,,,,,,,,,,,,,,,,,,,,,,,,40,Female,23,001,2021_Mar_10_1809,cal_abstract,2020.2.4,60.00412825957584,
Some images are special: the correct response is the opposite of the preceding correct response.,,,,,,,,,,0,2,2,2,,,,,,,,,,,,,,,,,,,,,,,130.1865459997207,None,130.1865459997207,None,return,0.4653676003217697,130.1865459997207,None,,,,,,,,,,,,,,,,,,,,,,,,,,,,,,,,,,,,,,,,,,,,,,,,,,,,,,,,,,,,,,,,,,,,,,,,,,,,,,,,,,,,,,,40,Female,23,001,2021_Mar_10_1809,cal_abstract,2020.2.4,60.00412825957584,
"That is, if the previous correct answer was “Left” then the correct response would now be “Right”.",,,,,,,,,,0,3,3,3,,,,,,,,,,,,,,,,,,,,,,,130.68812479963526,None,130.68812479963526,None,return,0.963279000017792,130.68812479963526,None,,,,,,,,,,,,,,,,,,,,,,,,,,,,,,,,,,,,,,,,,,,,,,,,,,,,,,,,,,,,,,,,,,,,,,,,,,,,,,,,,,,,,,,40,Female,23,001,2021_Mar_10_1809,cal_abstract,2020.2.4,60.00412825957584,
"After each response, you will be told whether you got the item correct or incorrect.",,,,,,,,,,0,4,4,4,,,,,,,,,,,,,,,,,,,,,,,131.68850649986416,None,131.68850649986416,None,return,0.6219124998897314,131.68850649986416,None,,,,,,,,,,,,,,,,,,,,,,,,,,,,,,,,,,,,,,,,,,,,,,,,,,,,,,,,,,,,,,,,,,,,,,,,,,,,,,,,,,,,,,,40,Female,23,001,2021_Mar_10_1809,cal_abstract,2020.2.4,60.00412825957584,
"You can take as long as you like on each image, but the task will not continue until you press the “Left” or “Right” arrow key.",,,,,,,,,,0,5,5,5,,,,,,,,,,,,,,,,,,,,,,,132.33794320002198,None,132.33794320002198,None,return,0.6706310003064573,132.33794320002198,None,,,,,,,,,,,,,,,,,,,,,,,,,,,,,,,,,,,,,,,,,,,,,,,,,,,,,,,,,,,,,,,,,,,,,,,,,,,,,,,,,,,,,,,40,Female,23,001,2021_Mar_10_1809,cal_abstract,2020.2.4,60.00412825957584,
"The experiment will have three blocks, each block will take approximately 10 minutes to complete.",,,,,,,,,,0,6,6,6,,,,,,,,,,,,,,,,,,,,,,,133.03903029998764,None,133.03903029998764,None,return,0.6699785999953747,133.03903029998764,None,,,,,,,,,,,,,,,,,,,,,,,,,,,,,,,,,,,,,,,,,,,,,,,,,,,,,,,,,,,,,,,,,,,,,,,,,,,,,,,,,,,,,,,40,Female,23,001,2021_Mar_10_1809,cal_abstract,2020.2.4,60.00412825957584,
,,,,,,,,,,,,,,,,,,,,,,,,,,,,,,,,,,,,,,,,,,,,133.7295610997826,None,133.7295610997826,None,s,1.2375904000364244,133.7295610997826,None,,,,,,,,,,,,,,,,,,,,,,,,,,,,,,,,,,,,,,,,,,,,,,,,,,,,,,,,,,,,,,,,,,,,,,,,,,,,,,,40,Female,23,001,2021_Mar_10_1809,cal_abstract,2020.2.4,60.00412825957584,
,Fix1,stimuli/Sad/1.jpg,left,,,,,,,,,,,0,0,0,0,,,,,,,,,,,,,,,,,,,,,,,,,,,,,,,,,,,135.10075420001522,None,135.10075420001522,None,right,0,104.83760369988158,135.10075420001522,None,0,239.9805773999542,None,,,,,,,,,,,,,,,,,,,,,,,,,,,,,,,,,,,,,,,,,,,,,,,,,,,,,,,,,,,,,,,,,,,40,Female,23,001,2021_Mar_10_1809,cal_abstract,2020.2.4,60.00412825957584,
,Fix1,stimuli/Sad/32.jpg,left,,,,,,,,,,,0,1,1,1,,,,,,,,,,,,,,,,,,,,,,,,,,,,,,,,,,,240.78284320002422,None,240.78284320002422,None,left,1,5.763670799788088,240.78284320002422,None,1,246.58186209993437,None,,,,,,,,,,,,,,,,,,,,,,,,,,,,,,,,,,,,,,,,,,,,,,,,,,,,,,,,,,,,,,,,,,,40,Female,23,001,2021_Mar_10_1809,cal_abstract,2020.2.4,60.00412825957584,
,Fix2,stimuli/Wealth/4.jpg,right,,,,,,,,,,,0,2,2,2,,,,,,,,,,,,,,,,,,,,,,,,,,,,,,,,,,,247.36099319998175,None,247.36099319998175,None,right,1,3.482206200249493,247.36099319998175,None,1,250.87130129989237,None,,,,,,,,,,,,,,,,,,,,,,,,,,,,,,,,,,,,,,,,,,,,,,,,,,,,,,,,,,,,,,,,,,,40,Female,23,001,2021_Mar_10_1809,cal_abstract,2020.2.4,60.00412825957584,
,Fix1,stimuli/Sad/42.jpg,left,,,,,,,,,,,0,3,3,3,,,,,,,,,,,,,,,,,,,,,,,,,,,,,,,,,,,251.6683799996972,None,251.6683799996972,None,left,1,1.5006122002378106,251.6683799996972,None,1,253.19904999993742,None,,,,,,,,,,,,,,,,,,,,,,,,,,,,,,,,,,,,,,,,,,,,,,,,,,,,,,,,,,,,,,,,,,,40,Female,23,001,2021_Mar_10_1809,cal_abstract,2020.2.4,60.00412825957584,
,Fix2,stimuli/Wealth/1.jpg,right,,,,,,,,,,,0,4,4,4,,,,,,,,,,,,,,,,,,,,,,,,,,,,,,,,,,,254.02657309966162,None,254.02657309966162,None,right,1,3.3196875997819006,254.02657309966162,None,1,257.36210809974,None,,,,,,,,,,,,,,,,,,,,,,,,,,,,,,,,,,,,,,,,,,,,,,,,,,,,,,,,,,,,,,,,,,,40,Female,23,001,2021_Mar_10_1809,cal_abstract,2020.2.4,60.00412825957584,
,Fix1,stimuli/Sad/55.jpg,left,,,,,,,,,,,0,5,5,5,,,,,,,,,,,,,,,,,,,,,,,,,,,,,,,,,,,258.1563062998466,None,258.1563062998466,None,left,1,3.8097403002902865,258.1563062998466,None,1,261.9916324997321,None,,,,,,,,,,,,,,,,,,,,,,,,,,,,,,,,,,,,,,,,,,,,,,,,,,,,,,,,,,,,,,,,,,,40,Female,23,001,2021_Mar_10_1809,cal_abstract,2020.2.4,60.00412825957584,
,Cond,stimuli/Healthy/49.jpg,right,,,,,,,,,,,0,6,6,6,,,,,,,,,,,,,,,,,,,,,,,,,,,,,,,,,,,262.77004129998386,None,262.77004129998386,None,right,1,4.772232899907976,262.77004129998386,None,1,267.5704832999036,None,,,,,,,,,,,,,,,,,,,,,,,,,,,,,,,,,,,,,,,,,,,,,,,,,,,,,,,,,,,,,,,,,,,40,Female,23,001,2021_Mar_10_1809,cal_abstract,2020.2.4,60.00412825957584,
,Fix1,stimuli/Sad/21.jpg,left,,,,,,,,,,,0,7,7,7,,,,,,,,,,,,,,,,,,,,,,,,,,,,,,,,,,,268.3511502998881,None,268.3511502998881,None,left,1,1.7899988000281155,268.3511502998881,None,1,270.1681851996109,None,,,,,,,,,,,,,,,,,,,,,,,,,,,,,,,,,,,,,,,,,,,,,,,,,,,,,,,,,,,,,,,,,,,40,Female,23,001,2021_Mar_10_1809,cal_abstract,2020.2.4,60.00412825957584,
,Fix2,stimuli/Wealth/3.jpg,right,,,,,,,,,,,0,8,8,8,,,,,,,,,,,,,,,,,,,,,,,,,,,,,,,,,,,270.9588297000155,None,270.9588297000155,None,right,1,13.69448469998315,270.9588297000155,None,1,284.6750757000409,None,,,,,,,,,,,,,,,,,,,,,,,,,,,,,,,,,,,,,,,,,,,,,,,,,,,,,,,,,,,,,,,,,,,40,Female,23,001,2021_Mar_10_1809,cal_abstract,2020.2.4,60.00412825957584,
,Cond,stimuli/Healthy/0.jpg,left,,,,,,,,,,,0,9,9,9,,,,,,,,,,,,,,,,,,,,,,,,,,,,,,,,,,,285.4840146000497,None,285.4840146000497,None,left,1,4.322113600093871,285.4840146000497,None,1,289.8365663997829,None,,,,,,,,,,,,,,,,,,,,,,,,,,,,,,,,,,,,,,,,,,,,,,,,,,,,,,,,,,,,,,,,,,,40,Female,23,001,2021_Mar_10_1809,cal_abstract,2020.2.4,60.00412825957584,
,Cond,stimuli/Healthy/48.jpg,right,,,,,,,,,,,0,10,10,10,,,,,,,,,,,,,,,,,,,,,,,,,,,,,,,,,,,290.656089999713,None,290.656089999713,None,right,1,2.3391121001914144,290.656089999713,None,1,293.0192928998731,None,,,,,,,,,,,,,,,,,,,,,,,,,,,,,,,,,,,,,,,,,,,,,,,,,,,,,,,,,,,,,,,,,,,40,Female,23,001,2021_Mar_10_1809,cal_abstract,2020.2.4,60.00412825957584,
,Cond,stimuli/Healthy/35.jpg,left,,,,,,,,,,,0,11,11,11,,,,,,,,,,,,,,,,,,,,,,,,,,,,,,,,,,,293.84998659975827,None,293.84998659975827,None,left,1,0.913962900172919,293.84998659975827,None,1,294.7812345996499,None,,,,,,,,,,,,,,,,,,,,,,,,,,,,,,,,,,,,,,,,,,,,,,,,,,,,,,,,,,,,,,,,,,,40,Female,23,001,2021_Mar_10_1809,cal_abstract,2020.2.4,60.00412825957584,
,Fix2,stimuli/Wealth/42.jpg,right,,,,,,,,,,,0,12,12,12,,,,,,,,,,,,,,,,,,,,,,,,,,,,,,,,,,,295.59177309973165,None,295.59177309973165,None,right,1,2.8472899002954364,295.59177309973165,None,1,298.4615505998954,None,,,,,,,,,,,,,,,,,,,,,,,,,,,,,,,,,,,,,,,,,,,,,,,,,,,,,,,,,,,,,,,,,,,40,Female,23,001,2021_Mar_10_1809,cal_abstract,2020.2.4,60.00412825957584,
,Fix2,stimuli/Wealth/21.jpg,right,,,,,,,,,,,0,13,13,13,,,,,,,,,,,,,,,,,,,,,,,,,,,,,,,,,,,299.25343929976225,None,299.25343929976225,None,right,1,1.1403328999876976,299.25343929976225,None,1,300.41067019989714,None,,,,,,,,,,,,,,,,,,,,,,,,,,,,,,,,,,,,,,,,,,,,,,,,,,,,,,,,,,,,,,,,,,,40,Female,23,001,2021_Mar_10_1809,cal_abstract,2020.2.4,60.00412825957584,
,Fix2,stimuli/Wealth/53.jpg,right,,,,,,,,,,,0,14,14,14,,,,,,,,,,,,,,,,,,,,,,,,,,,,,,,,,,,301.2004076996818,None,301.2004076996818,None,right,1,3.1918846000917256,301.2004076996818,None,1,304.4099602997303,None,,,,,,,,,,,,,,,,,,,,,,,,,,,,,,,,,,,,,,,,,,,,,,,,,,,,,,,,,,,,,,,,,,,40,Female,23,001,2021_Mar_10_1809,cal_abstract,2020.2.4,60.00412825957584,
,Fix2,stimuli/Wealth/29.jpg,right,,,,,,,,,,,0,15,15,15,,,,,,,,,,,,,,,,,,,,,,,,,,,,,,,,,,,305.1985652996227,None,305.1985652996227,None,right,1,0.9814280001446605,305.1985652996227,None,1,306.20752589963377,None,,,,,,,,,,,,,,,,,,,,,,,,,,,,,,,,,,,,,,,,,,,,,,,,,,,,,,,,,,,,,,,,,,,40,Female,23,001,2021_Mar_10_1809,cal_abstract,2020.2.4,60.00412825957584,
,Fix1,stimuli/Sad/38.jpg,left,,,,,,,,,,,0,16,16,16,,,,,,,,,,,,,,,,,,,,,,,,,,,,,,,,,,,307.01630989974365,None,307.01630989974365,None,left,1,1.5633093998767436,307.01630989974365,None,1,308.6049984996207,None,,,,,,,,,,,,,,,,,,,,,,,,,,,,,,,,,,,,,,,,,,,,,,,,,,,,,,,,,,,,,,,,,,,40,Female,23,001,2021_Mar_10_1809,cal_abstract,2020.2.4,60.00412825957584,
,Fix1,stimuli/Sad/31.jpg,left,,,,,,,,,,,0,17,17,17,,,,,,,,,,,,,,,,,,,,,,,,,,,,,,,,,,,309.41137810004875,None,309.41137810004875,None,left,1,1.3772136000916362,309.41137810004875,None,1,310.8201644998044,None,,,,,,,,,,,,,,,,,,,,,,,,,,,,,,,,,,,,,,,,,,,,,,,,,,,,,,,,,,,,,,,,,,,40,Female,23,001,2021_Mar_10_1809,cal_abstract,2020.2.4,60.00412825957584,
,Fix2,stimuli/Wealth/39.jpg,right,,,,,,,,,,,0,18,18,18,,,,,,,,,,,,,,,,,,,,,,,,,,,,,,,,,,,311.61914910003543,None,311.61914910003543,None,right,1,1.014544999692589,311.61914910003543,None,1,312.6501694000326,None,,,,,,,,,,,,,,,,,,,,,,,,,,,,,,,,,,,,,,,,,,,,,,,,,,,,,,,,,,,,,,,,,,,40,Female,23,001,2021_Mar_10_1809,cal_abstract,2020.2.4,60.00412825957584,
,Fix2,stimuli/Wealth/20.jpg,right,,,,,,,,,,,0,19,19,19,,,,,,,,,,,,,,,,,,,,,,,,,,,,,,,,,,,313.4288526000455,None,313.4288526000455,None,right,1,1.3902436001226306,313.4288526000455,None,1,314.848326199688,None,,,,,,,,,,,,,,,,,,,,,,,,,,,,,,,,,,,,,,,,,,,,,,,,,,,,,,,,,,,,,,,,,,,40,Female,23,001,2021_Mar_10_1809,cal_abstract,2020.2.4,60.00412825957584,
,Fix2,stimuli/Wealth/56.jpg,right,,,,,,,,,,,0,20,20,20,,,,,,,,,,,,,,,,,,,,,,,,,,,,,,,,,,,315.67100579990074,None,315.67100579990074,None,right,1,2.7242942000739276,315.67100579990074,None,1,318.4121460998431,None,,,,,,,,,,,,,,,,,,,,,,,,,,,,,,,,,,,,,,,,,,,,,,,,,,,,,,,,,,,,,,,,,,,40,Female,23,001,2021_Mar_10_1809,cal_abstract,2020.2.4,60.00412825957584,
,Fix1,stimuli/Sad/2.jpg,left,,,,,,,,,,,0,21,21,21,,,,,,,,,,,,,,,,,,,,,,,,,,,,,,,,,,,319.19696059962735,None,319.19696059962735,None,left,1,1.333779300097376,319.19696059962735,None,1,320.562104200013,None,,,,,,,,,,,,,,,,,,,,,,,,,,,,,,,,,,,,,,,,,,,,,,,,,,,,,,,,,,,,,,,,,,,40,Female,23,001,2021_Mar_10_1809,cal_abstract,2020.2.4,60.00412825957584,
,Cond,stimuli/Healthy/51.jpg,right,,,,,,,,,,,0,22,22,22,,,,,,,,,,,,,,,,,,,,,,,,,,,,,,,,,,,321.3683730997145,None,321.3683730997145,None,right,1,0.8687172997742891,321.3683730997145,None,1,322.26182359969243,None,,,,,,,,,,,,,,,,,,,,,,,,,,,,,,,,,,,,,,,,,,,,,,,,,,,,,,,,,,,,,,,,,,,40,Female,23,001,2021_Mar_10_1809,cal_abstract,2020.2.4,60.00412825957584,
,Fix2,stimuli/Wealth/17.jpg,right,,,,,,,,,,,0,23,23,23,,,,,,,,,,,,,,,,,,,,,,,,,,,,,,,,,,,323.06512739975005,None,323.06512739975005,None,right,1,0.9141975999809802,323.06512739975005,None,1,324.0070237000473,None,,,,,,,,,,,,,,,,,,,,,,,,,,,,,,,,,,,,,,,,,,,,,,,,,,,,,,,,,,,,,,,,,,,40,Female,23,001,2021_Mar_10_1809,cal_abstract,2020.2.4,60.00412825957584,
,Fix2,stimuli/Wealth/11.jpg,right,,,,,,,,,,,0,24,24,24,,,,,,,,,,,,,,,,,,,,,,,,,,,,,,,,,,,324.78708030004054,None,324.78708030004054,None,right,1,1.9833912998437881,324.78708030004054,None,1,326.78884349996224,None,,,,,,,,,,,,,,,,,,,,,,,,,,,,,,,,,,,,,,,,,,,,,,,,,,,,,,,,,,,,,,,,,,,40,Female,23,001,2021_Mar_10_1809,cal_abstract,2020.2.4,60.00412825957584,
,Cond,stimuli/Healthy/8.jpg,left,,,,,,,,,,,0,25,25,25,,,,,,,,,,,,,,,,,,,,,,,,,,,,,,,,,,,327.596878899727,None,327.596878899727,None,left,1,0.9650269001722336,327.596878899727,None,1,328.58747589960694,None,,,,,,,,,,,,,,,,,,,,,,,,,,,,,,,,,,,,,,,,,,,,,,,,,,,,,,,,,,,,,,,,,,,40,Female,23,001,2021_Mar_10_1809,cal_abstract,2020.2.4,60.00412825957584,
,Cond,stimuli/Healthy/68.jpg,right,,,,,,,,,,,0,26,26,26,,,,,,,,,,,,,,,,,,,,,,,,,,,,,,,,,,,329.3813668997027,None,329.3813668997027,None,right,1,0.6430337997153401,329.3813668997027,None,1,330.0527413999662,None,,,,,,,,,,,,,,,,,,,,,,,,,,,,,,,,,,,,,,,,,,,,,,,,,,,,,,,,,,,,,,,,,,,40,Female,23,001,2021_Mar_10_1809,cal_abstract,2020.2.4,60.00412825957584,
,Cond,stimuli/Healthy/63.jpg,left,,,,,,,,,,,0,27,27,27,,,,,,,,,,,,,,,,,,,,,,,,,,,,,,,,,,,330.8497357997112,None,330.8497357997112,None,left,1,1.4265740998089314,330.8497357997112,None,1,332.3009623000398,None,,,,,,,,,,,,,,,,,,,,,,,,,,,,,,,,,,,,,,,,,,,,,,,,,,,,,,,,,,,,,,,,,,,40,Female,23,001,2021_Mar_10_1809,cal_abstract,2020.2.4,60.00412825957584,
,Fix2,stimuli/Wealth/51.jpg,right,,,,,,,,,,,0,28,28,28,,,,,,,,,,,,,,,,,,,,,,,,,,,,,,,,,,,333.0935744997114,None,333.0935744997114,None,right,1,0.9772747997194529,333.0935744997114,None,1,334.0985613996163,None,,,,,,,,,,,,,,,,,,,,,,,,,,,,,,,,,,,,,,,,,,,,,,,,,,,,,,,,,,,,,,,,,,,40,Female,23,001,2021_Mar_10_1809,cal_abstract,2020.2.4,60.00412825957584,
,Fix1,stimuli/Sad/45.jpg,left,,,,,,,,,,,0,29,29,29,,,,,,,,,,,,,,,,,,,,,,,,,,,,,,,,,,,334.8582545998506,None,334.8582545998506,None,left,1,2.2087962003424764,334.8582545998506,None,1,337.09695669962093,None,,,,,,,,,,,,,,,,,,,,,,,,,,,,,,,,,,,,,,,,,,,,,,,,,,,,,,,,,,,,,,,,,,,40,Female,23,001,2021_Mar_10_1809,cal_abstract,2020.2.4,60.00412825957584,
,Cond,stimuli/Healthy/32.jpg,right,,,,,,,,,,,0,30,30,30,,,,,,,,,,,,,,,,,,,,,,,,,,,,,,,,,,,337.87872010003775,None,337.87872010003775,None,right,1,2.030340400058776,337.87872010003775,None,1,339.93020089995116,None,,,,,,,,,,,,,,,,,,,,,,,,,,,,,,,,,,,,,,,,,,,,,,,,,,,,,,,,,,,,,,,,,,,40,Female,23,001,2021_Mar_10_1809,cal_abstract,2020.2.4,60.00412825957584,
,Cond,stimuli/Healthy/34.jpg,left,,,,,,,,,,,0,31,31,31,,,,,,,,,,,,,,,,,,,,,,,,,,,,,,,,,,,340.72345559997484,None,340.72345559997484,None,left,1,0.88167480006814,340.72345559997484,None,1,341.6259963000193,None,,,,,,,,,,,,,,,,,,,,,,,,,,,,,,,,,,,,,,,,,,,,,,,,,,,,,,,,,,,,,,,,,,,40,Female,23,001,2021_Mar_10_1809,cal_abstract,2020.2.4,60.00412825957584,
,Fix1,stimuli/Sad/37.jpg,left,,,,,,,,,,,0,32,32,32,,,,,,,,,,,,,,,,,,,,,,,,,,,,,,,,,,,342.4185171998106,None,342.4185171998106,None,left,1,1.1104929000139236,342.4185171998106,None,1,343.5600332999602,None,,,,,,,,,,,,,,,,,,,,,,,,,,,,,,,,,,,,,,,,,,,,,,,,,,,,,,,,,,,,,,,,,,,40,Female,23,001,2021_Mar_10_1809,cal_abstract,2020.2.4,60.00412825957584,
,Fix1,stimuli/Sad/58.jpg,left,,,,,,,,,,,0,33,33,33,,,,,,,,,,,,,,,,,,,,,,,,,,,,,,,,,,,344.369445099961,None,344.369445099961,None,left,1,1.6722983000800014,344.369445099961,None,1,346.0724523998797,None,,,,,,,,,,,,,,,,,,,,,,,,,,,,,,,,,,,,,,,,,,,,,,,,,,,,,,,,,,,,,,,,,,,40,Female,23,001,2021_Mar_10_1809,cal_abstract,2020.2.4,60.00412825957584,
,Cond,stimuli/Healthy/65.jpg,right,,,,,,,,,,,0,34,34,34,,,,,,,,,,,,,,,,,,,,,,,,,,,,,,,,,,,346.8668686999008,None,346.8668686999008,None,right,1,5.216982999816537,346.8668686999008,None,1,352.1037608999759,None,,,,,,,,,,,,,,,,,,,,,,,,,,,,,,,,,,,,,,,,,,,,,,,,,,,,,,,,,,,,,,,,,,,40,Female,23,001,2021_Mar_10_1809,cal_abstract,2020.2.4,60.00412825957584,
,Cond,stimuli/Healthy/62.jpg,left,,,,,,,,,,,0,35,35,35,,,,,,,,,,,,,,,,,,,,,,,,,,,,,,,,,,,352.89017839962617,None,352.89017839962617,None,left,1,2.279692300129682,352.89017839962617,None,1,355.1982130999677,None,,,,,,,,,,,,,,,,,,,,,,,,,,,,,,,,,,,,,,,,,,,,,,,,,,,,,,,,,,,,,,,,,,,40,Female,23,001,2021_Mar_10_1809,cal_abstract,2020.2.4,60.00412825957584,
,Cond,stimuli/Healthy/33.jpg,right,,,,,,,,,,,0,36,36,36,,,,,,,,,,,,,,,,,,,,,,,,,,,,,,,,,,,355.9839273998514,None,355.9839273998514,None,right,1,1.2181408000178635,355.9839273998514,None,1,357.2301232996397,None,,,,,,,,,,,,,,,,,,,,,,,,,,,,,,,,,,,,,,,,,,,,,,,,,,,,,,,,,,,,,,,,,,,40,Female,23,001,2021_Mar_10_1809,cal_abstract,2020.2.4,60.00412825957584,
,Cond,stimuli/Healthy/40.jpg,left,,,,,,,,,,,0,37,37,37,,,,,,,,,,,,,,,,,,,,,,,,,,,,,,,,,,,358.0136823998764,None,358.0136823998764,None,left,1,1.3022977001965046,358.0136823998764,None,1,359.3446700000204,None,,,,,,,,,,,,,,,,,,,,,,,,,,,,,,,,,,,,,,,,,,,,,,,,,,,,,,,,,,,,,,,,,,,40,Female,23,001,2021_Mar_10_1809,cal_abstract,2020.2.4,60.00412825957584,
,Fix2,stimuli/Wealth/25.jpg,right,,,,,,,,,,,0,38,38,38,,,,,,,,,,,,,,,,,,,,,,,,,,,,,,,,,,,360.1357543999329,None,360.1357543999329,None,right,1,0.639083200134337,360.1357543999329,None,1,360.7937833997421,None,,,,,,,,,,,,,,,,,,,,,,,,,,,,,,,,,,,,,,,,,,,,,,,,,,,,,,,,,,,,,,,,,,,40,Female,23,001,2021_Mar_10_1809,cal_abstract,2020.2.4,60.00412825957584,
,Fix1,stimuli/Sad/40.jpg,left,,,,,,,,,,,0,39,39,39,,,,,,,,,,,,,,,,,,,,,,,,,,,,,,,,,,,361.5829169000499,None,361.5829169000499,None,left,1,1.2587803998030722,361.5829169000499,None,1,362.85882189963013,None,,,,,,,,,,,,,,,,,,,,,,,,,,,,,,,,,,,,,,,,,,,,,,,,,,,,,,,,,,,,,,,,,,,40,Female,23,001,2021_Mar_10_1809,cal_abstract,2020.2.4,60.00412825957584,
,Cond,stimuli/Healthy/14.jpg,right,,,,,,,,,,,0,40,40,40,,,,,,,,,,,,,,,,,,,,,,,,,,,,,,,,,,,363.63929759990424,None,363.63929759990424,None,left,0,2.123339300043881,363.63929759990424,None,0,365.7949458998628,None,,,,,,,,,,,,,,,,,,,,,,,,,,,,,,,,,,,,,,,,,,,,,,,,,,,,,,,,,,,,,,,,,,,40,Female,23,001,2021_Mar_10_1809,cal_abstract,2020.2.4,60.00412825957584,
,Fix1,stimuli/Sad/20.jpg,left,,,,,,,,,,,0,41,41,41,,,,,,,,,,,,,,,,,,,,,,,,,,,,,,,,,,,366.57059150002897,None,366.57059150002897,None,left,1,1.3582526999525726,366.57059150002897,None,1,367.95984079968184,None,,,,,,,,,,,,,,,,,,,,,,,,,,,,,,,,,,,,,,,,,,,,,,,,,,,,,,,,,,,,,,,,,,,40,Female,23,001,2021_Mar_10_1809,cal_abstract,2020.2.4,60.00412825957584,
,Cond,stimuli/Healthy/41.jpg,right,,,,,,,,,,,0,42,42,42,,,,,,,,,,,,,,,,,,,,,,,,,,,,,,,,,,,368.77179439971223,None,368.77179439971223,None,left,0,1.1196232000365853,368.77179439971223,None,0,369.92138399975374,None,,,,,,,,,,,,,,,,,,,,,,,,,,,,,,,,,,,,,,,,,,,,,,,,,,,,,,,,,,,,,,,,,,,40,Female,23,001,2021_Mar_10_1809,cal_abstract,2020.2.4,60.00412825957584,
,Cond,stimuli/Healthy/10.jpg,left,,,,,,,,,,,0,43,43,43,,,,,,,,,,,,,,,,,,,,,,,,,,,,,,,,,,,370.7407470997423,None,370.7407470997423,None,left,1,1.2192595000378788,370.7407470997423,None,1,371.9887894997373,None,,,,,,,,,,,,,,,,,,,,,,,,,,,,,,,,,,,,,,,,,,,,,,,,,,,,,,,,,,,,,,,,,,,40,Female,23,001,2021_Mar_10_1809,cal_abstract,2020.2.4,60.00412825957584,
,Fix1,stimuli/Sad/33.jpg,left,,,,,,,,,,,0,44,44,44,,,,,,,,,,,,,,,,,,,,,,,,,,,,,,,,,,,372.7903617997654,None,372.7903617997654,None,left,1,1.1518339002504945,372.7903617997654,None,1,373.9664723998867,None,,,,,,,,,,,,,,,,,,,,,,,,,,,,,,,,,,,,,,,,,,,,,,,,,,,,,,,,,,,,,,,,,,,40,Female,23,001,2021_Mar_10_1809,cal_abstract,2020.2.4,60.00412825957584,
,Fix2,stimuli/Wealth/10.jpg,right,,,,,,,,,,,0,45,45,45,,,,,,,,,,,,,,,,,,,,,,,,,,,,,,,,,,,374.7722208998166,None,374.7722208998166,None,right,1,1.1929350001737475,374.7722208998166,None,1,375.98182570002973,None,,,,,,,,,,,,,,,,,,,,,,,,,,,,,,,,,,,,,,,,,,,,,,,,,,,,,,,,,,,,,,,,,,,40,Female,23,001,2021_Mar_10_1809,cal_abstract,2020.2.4,60.00412825957584,
,Cond,stimuli/Healthy/28.jpg,left,,,,,,,,,,,0,46,46,46,,,,,,,,,,,,,,,,,,,,,,,,,,,,,,,,,,,376.7672346998006,None,376.7672346998006,None,right,0,3.636452800128609,376.7672346998006,None,0,380.43553629983217,None,,,,,,,,,,,,,,,,,,,,,,,,,,,,,,,,,,,,,,,,,,,,,,,,,,,,,,,,,,,,,,,,,,,40,Female,23,001,2021_Mar_10_1809,cal_abstract,2020.2.4,60.00412825957584,
,Fix1,stimuli/Sad/16.jpg,left,,,,,,,,,,,0,47,47,47,,,,,,,,,,,,,,,,,,,,,,,,,,,,,,,,,,,381.23342129960656,None,381.23342129960656,None,left,1,1.3084780001081526,381.23342129960656,None,1,382.5669789998792,None,,,,,,,,,,,,,,,,,,,,,,,,,,,,,,,,,,,,,,,,,,,,,,,,,,,,,,,,,,,,,,,,,,,40,Female,23,001,2021_Mar_10_1809,cal_abstract,2020.2.4,60.00412825957584,
,Fix2,stimuli/Wealth/47.jpg,right,,,,,,,,,,,0,48,48,48,,,,,,,,,,,,,,,,,,,,,,,,,,,,,,,,,,,383.3613427998498,None,383.3613427998498,None,right,1,0.9550295998342335,383.3613427998498,None,1,384.34272950002924,None,,,,,,,,,,,,,,,,,,,,,,,,,,,,,,,,,,,,,,,,,,,,,,,,,,,,,,,,,,,,,,,,,,,40,Female,23,001,2021_Mar_10_1809,cal_abstract,2020.2.4,60.00412825957584,
,Cond,stimuli/Healthy/9.jpg,left,,,,,,,,,,,0,49,49,49,,,,,,,,,,,,,,,,,,,,,,,,,,,,,,,,,,,385.15075729973614,None,385.15075729973614,None,right,0,0.7223542002029717,385.15075729973614,None,0,385.8978756000288,None,,,,,,,,,,,,,,,,,,,,,,,,,,,,,,,,,,,,,,,,,,,,,,,,,,,,,,,,,,,,,,,,,,,40,Female,23,001,2021_Mar_10_1809,cal_abstract,2020.2.4,60.00412825957584,
,Fix1,stimuli/Sad/29.jpg,left,,,,,,,,,,,0,50,50,50,,,,,,,,,,,,,,,,,,,,,,,,,,,,,,,,,,,386.7047975999303,None,386.7047975999303,None,left,1,2.12415560008958,386.7047975999303,None,1,388.8588209999725,None,,,,,,,,,,,,,,,,,,,,,,,,,,,,,,,,,,,,,,,,,,,,,,,,,,,,,,,,,,,,,,,,,,,40,Female,23,001,2021_Mar_10_1809,cal_abstract,2020.2.4,60.00412825957584,
,Fix1,stimuli/Sad/59.jpg,left,,,,,,,,,,,0,51,51,51,,,,,,,,,,,,,,,,,,,,,,,,,,,,,,,,,,,389.6567114996724,None,389.6567114996724,None,left,1,0.9287880999036133,389.6567114996724,None,1,390.60535599989817,None,,,,,,,,,,,,,,,,,,,,,,,,,,,,,,,,,,,,,,,,,,,,,,,,,,,,,,,,,,,,,,,,,,,40,Female,23,001,2021_Mar_10_1809,cal_abstract,2020.2.4,60.00412825957584,
,Cond,stimuli/Healthy/50.jpg,right,,,,,,,,,,,0,52,52,52,,,,,,,,,,,,,,,,,,,,,,,,,,,,,,,,,,,391.39484359975904,None,391.39484359975904,None,right,1,1.8682524003088474,391.39484359975904,None,1,393.2833957998082,None,,,,,,,,,,,,,,,,,,,,,,,,,,,,,,,,,,,,,,,,,,,,,,,,,,,,,,,,,,,,,,,,,,,40,Female,23,001,2021_Mar_10_1809,cal_abstract,2020.2.4,60.00412825957584,
,Fix1,stimuli/Sad/9.jpg,left,,,,,,,,,,,0,53,53,53,,,,,,,,,,,,,,,,,,,,,,,,,,,,,,,,,,,394.07334849983454,None,394.07334849983454,None,left,1,2.6517177000641823,394.07334849983454,None,1,396.7475933996029,None,,,,,,,,,,,,,,,,,,,,,,,,,,,,,,,,,,,,,,,,,,,,,,,,,,,,,,,,,,,,,,,,,,,40,Female,23,001,2021_Mar_10_1809,cal_abstract,2020.2.4,60.00412825957584,
,Fix2,stimuli/Wealth/14.jpg,right,,,,,,,,,,,0,54,54,54,,,,,,,,,,,,,,,,,,,,,,,,,,,,,,,,,,,397.5327047999017,None,397.5327047999017,None,right,1,1.2048941003158689,397.5327047999017,None,1,398.7630225997418,None,,,,,,,,,,,,,,,,,,,,,,,,,,,,,,,,,,,,,,,,,,,,,,,,,,,,,,,,,,,,,,,,,,,40,Female,23,001,2021_Mar_10_1809,cal_abstract,2020.2.4,60.00412825957584,
,Cond,stimuli/Healthy/55.jpg,left,,,,,,,,,,,0,55,55,55,,,,,,,,,,,,,,,,,,,,,,,,,,,,,,,,,,,399.5441549997777,None,399.5441549997777,None,left,1,1.0786667000502348,399.5441549997777,None,1,400.64458990003914,None,,,,,,,,,,,,,,,,,,,,,,,,,,,,,,,,,,,,,,,,,,,,,,,,,,,,,,,,,,,,,,,,,,,40,Female,23,001,2021_Mar_10_1809,cal_abstract,2020.2.4,60.00412825957584,
,Fix1,stimuli/Sad/4.jpg,left,,,,,,,,,,,0,56,56,56,,,,,,,,,,,,,,,,,,,,,,,,,,,,,,,,,,,401.4371426999569,None,401.4371426999569,None,left,1,1.426644999999553,401.4371426999569,None,1,402.8926551998593,None,,,,,,,,,,,,,,,,,,,,,,,,,,,,,,,,,,,,,,,,,,,,,,,,,,,,,,,,,,,,,,,,,,,40,Female,23,001,2021_Mar_10_1809,cal_abstract,2020.2.4,60.00412825957584,
,Cond,stimuli/Healthy/3.jpg,right,,,,,,,,,,,0,57,57,57,,,,,,,,,,,,,,,,,,,,,,,,,,,,,,,,,,,403.68797770002857,None,403.68797770002857,None,right,1,1.1133251003921032,403.68797770002857,None,1,404.82583299977705,None,,,,,,,,,,,,,,,,,,,,,,,,,,,,,,,,,,,,,,,,,,,,,,,,,,,,,,,,,,,,,,,,,,,40,Female,23,001,2021_Mar_10_1809,cal_abstract,2020.2.4,60.00412825957584,
,Fix1,stimuli/Sad/15.jpg,left,,,,,,,,,,,0,58,58,58,,,,,,,,,,,,,,,,,,,,,,,,,,,,,,,,,,,405.6357522998005,None,405.6357522998005,None,left,1,3.50701820012182,405.6357522998005,None,1,409.170794500038,None,,,,,,,,,,,,,,,,,,,,,,,,,,,,,,,,,,,,,,,,,,,,,,,,,,,,,,,,,,,,,,,,,,,40,Female,23,001,2021_Mar_10_1809,cal_abstract,2020.2.4,60.00412825957584,
,Fix1,stimuli/Sad/26.jpg,left,,,,,,,,,,,0,59,59,59,,,,,,,,,,,,,,,,,,,,,,,,,,,,,,,,,,,409.95965510001406,None,409.95965510001406,None,left,1,1.3226085002534091,409.95965510001406,None,1,411.3026035996154,None,,,,,,,,,,,,,,,,,,,,,,,,,,,,,,,,,,,,,,,,,,,,,,,,,,,,,,,,,,,,,,,,,,,40,Female,23,001,2021_Mar_10_1809,cal_abstract,2020.2.4,60.00412825957584,
,Cond,stimuli/Healthy/20.jpg,right,,,,,,,,,,,0,60,60,60,,,,,,,,,,,,,,,,,,,,,,,,,,,,,,,,,,,412.09590739989653,None,412.09590739989653,None,left,0,0.8564128000289202,412.09590739989653,None,0,412.97483909968287,None,,,,,,,,,,,,,,,,,,,,,,,,,,,,,,,,,,,,,,,,,,,,,,,,,,,,,,,,,,,,,,,,,,,40,Female,23,001,2021_Mar_10_1809,cal_abstract,2020.2.4,60.00412825957584,
,Fix2,stimuli/Wealth/57.jpg,right,,,,,,,,,,,0,61,61,61,,,,,,,,,,,,,,,,,,,,,,,,,,,,,,,,,,,413.79513829993084,None,413.79513829993084,None,right,1,1.0256730001419783,413.79513829993084,None,1,414.85492519987747,None,,,,,,,,,,,,,,,,,,,,,,,,,,,,,,,,,,,,,,,,,,,,,,,,,,,,,,,,,,,,,,,,,,,40,Female,23,001,2021_Mar_10_1809,cal_abstract,2020.2.4,60.00412825957584,
,Cond,stimuli/Healthy/23.jpg,left,,,,,,,,,,,0,62,62,62,,,,,,,,,,,,,,,,,,,,,,,,,,,,,,,,,,,415.65119750006124,None,415.65119750006124,None,left,1,0.865408199839294,415.65119750006124,None,1,416.54813640005887,None,,,,,,,,,,,,,,,,,,,,,,,,,,,,,,,,,,,,,,,,,,,,,,,,,,,,,,,,,,,,,,,,,,,40,Female,23,001,2021_Mar_10_1809,cal_abstract,2020.2.4,60.00412825957584,
,Fix2,stimuli/Wealth/24.jpg,right,,,,,,,,,,,0,63,63,63,,,,,,,,,,,,,,,,,,,,,,,,,,,,,,,,,,,417.3284134999849,None,417.3284134999849,None,right,1,0.6267857002094388,417.3284134999849,None,1,417.98013009969145,None,,,,,,,,,,,,,,,,,,,,,,,,,,,,,,,,,,,,,,,,,,,,,,,,,,,,,,,,,,,,,,,,,,,40,Female,23,001,2021_Mar_10_1809,cal_abstract,2020.2.4,60.00412825957584,
,Fix1,stimuli/Sad/3.jpg,left,,,,,,,,,,,0,64,64,64,,,,,,,,,,,,,,,,,,,,,,,,,,,,,,,,,,,418.7555811996572,None,418.7555811996572,None,left,1,1.3383210999891162,418.7555811996572,None,1,420.1119915996678,None,,,,,,,,,,,,,,,,,,,,,,,,,,,,,,,,,,,,,,,,,,,,,,,,,,,,,,,,,,,,,,,,,,,40,Female,23,001,2021_Mar_10_1809,cal_abstract,2020.2.4,60.00412825957584,
,Fix1,stimuli/Sad/47.jpg,left,,,,,,,,,,,0,65,65,65,,,,,,,,,,,,,,,,,,,,,,,,,,,,,,,,,,,420.8962820000015,None,420.8962820000015,None,left,1,0.8692529001273215,420.8962820000015,None,1,421.7935139997862,None,,,,,,,,,,,,,,,,,,,,,,,,,,,,,,,,,,,,,,,,,,,,,,,,,,,,,,,,,,,,,,,,,,,40,Female,23,001,2021_Mar_10_1809,cal_abstract,2020.2.4,60.00412825957584,
,Fix2,stimuli/Wealth/28.jpg,right,,,,,,,,,,,0,66,66,66,,,,,,,,,,,,,,,,,,,,,,,,,,,,,,,,,,,422.61052639968693,None,422.61052639968693,None,right,1,1.3813550998456776,422.61052639968693,None,1,424.008491799701,None,,,,,,,,,,,,,,,,,,,,,,,,,,,,,,,,,,,,,,,,,,,,,,,,,,,,,,,,,,,,,,,,,,,40,Female,23,001,2021_Mar_10_1809,cal_abstract,2020.2.4,60.00412825957584,
,Fix2,stimuli/Wealth/0.jpg,right,,,,,,,,,,,0,67,67,67,,,,,,,,,,,,,,,,,,,,,,,,,,,,,,,,,,,424.7937500998378,None,424.7937500998378,None,right,1,1.0674209999851882,424.7937500998378,None,1,425.890232199803,None,,,,,,,,,,,,,,,,,,,,,,,,,,,,,,,,,,,,,,,,,,,,,,,,,,,,,,,,,,,,,,,,,,,40,Female,23,001,2021_Mar_10_1809,cal_abstract,2020.2.4,60.00412825957584,
,Cond,stimuli/Healthy/37.jpg,left,,,,,,,,,,,0,68,68,68,,,,,,,,,,,,,,,,,,,,,,,,,,,,,,,,,,,426.6713442998007,None,426.6713442998007,None,left,1,0.9830280002206564,426.6713442998007,None,1,427.6723806997761,None,,,,,,,,,,,,,,,,,,,,,,,,,,,,,,,,,,,,,,,,,,,,,,,,,,,,,,,,,,,,,,,,,,,40,Female,23,001,2021_Mar_10_1809,cal_abstract,2020.2.4,60.00412825957584,
,Cond,stimuli/Healthy/36.jpg,right,,,,,,,,,,,0,69,69,69,,,,,,,,,,,,,,,,,,,,,,,,,,,,,,,,,,,428.46085250005126,None,428.46085250005126,None,right,1,1.8385083000175655,428.46085250005126,None,1,430.32151129981503,None,,,,,,,,,,,,,,,,,,,,,,,,,,,,,,,,,,,,,,,,,,,,,,,,,,,,,,,,,,,,,,,,,,,40,Female,23,001,2021_Mar_10_1809,cal_abstract,2020.2.4,60.00412825957584,
,Fix2,stimuli/Wealth/16.jpg,right,,,,,,,,,,,0,70,70,70,,,,,,,,,,,,,,,,,,,,,,,,,,,,,,,,,,,431.1179847996682,None,431.1179847996682,None,right,1,3.2369848000817,431.1179847996682,None,1,434.3834573999047,None,,,,,,,,,,,,,,,,,,,,,,,,,,,,,,,,,,,,,,,,,,,,,,,,,,,,,,,,,,,,,,,,,,,40,Female,23,001,2021_Mar_10_1809,cal_abstract,2020.2.4,60.00412825957584,
,Fix1,stimuli/Sad/14.jpg,left,,,,,,,,,,,0,71,71,71,,,,,,,,,,,,,,,,,,,,,,,,,,,,,,,,,,,435.17091149976477,None,435.17091149976477,None,left,1,0.8658389998599887,435.17091149976477,None,1,436.0645279996097,None,,,,,,,,,,,,,,,,,,,,,,,,,,,,,,,,,,,,,,,,,,,,,,,,,,,,,,,,,,,,,,,,,,,40,Female,23,001,2021_Mar_10_1809,cal_abstract,2020.2.4,60.00412825957584,
,Cond,stimuli/Healthy/24.jpg,right,,,,,,,,,,,0,72,72,72,,,,,,,,,,,,,,,,,,,,,,,,,,,,,,,,,,,436.8608677997254,None,436.8608677997254,None,left,0,1.1656291000545025,436.8608677997254,None,0,438.0501842997037,None,,,,,,,,,,,,,,,,,,,,,,,,,,,,,,,,,,,,,,,,,,,,,,,,,,,,,,,,,,,,,,,,,,,40,Female,23,001,2021_Mar_10_1809,cal_abstract,2020.2.4,60.00412825957584,
,Cond,stimuli/Healthy/52.jpg,left,,,,,,,,,,,0,73,73,73,,,,,,,,,,,,,,,,,,,,,,,,,,,,,,,,,,,438.86452179960907,None,438.86452179960907,None,left,1,1.786404199898243,438.86452179960907,None,1,440.6807680996135,None,,,,,,,,,,,,,,,,,,,,,,,,,,,,,,,,,,,,,,,,,,,,,,,,,,,,,,,,,,,,,,,,,,,40,Female,23,001,2021_Mar_10_1809,cal_abstract,2020.2.4,60.00412825957584,
,Cond,stimuli/Healthy/13.jpg,right,,,,,,,,,,,0,74,74,74,,,,,,,,,,,,,,,,,,,,,,,,,,,,,,,,,,,441.47368919989094,None,441.47368919989094,None,right,1,1.151509600225836,441.47368919989094,None,1,442.6440444998443,None,,,,,,,,,,,,,,,,,,,,,,,,,,,,,,,,,,,,,,,,,,,,,,,,,,,,,,,,,,,,,,,,,,,40,Female,23,001,2021_Mar_10_1809,cal_abstract,2020.2.4,60.00412825957584,
,Fix2,stimuli/Wealth/45.jpg,right,,,,,,,,,,,0,75,75,75,,,,,,,,,,,,,,,,,,,,,,,,,,,,,,,,,,,443.4341815998778,None,443.4341815998778,None,right,1,1.173759600147605,443.4341815998778,None,1,444.628541899845,None,,,,,,,,,,,,,,,,,,,,,,,,,,,,,,,,,,,,,,,,,,,,,,,,,,,,,,,,,,,,,,,,,,,40,Female,23,001,2021_Mar_10_1809,cal_abstract,2020.2.4,60.00412825957584,
,Cond,stimuli/Healthy/12.jpg,left,,,,,,,,,,,0,76,76,76,,,,,,,,,,,,,,,,,,,,,,,,,,,,,,,,,,,445.46356129972264,None,445.46356129972264,None,left,1,2.9709923998452723,445.46356129972264,None,1,448.45491009997204,None,,,,,,,,,,,,,,,,,,,,,,,,,,,,,,,,,,,,,,,,,,,,,,,,,,,,,,,,,,,,,,,,,,,40,Female,23,001,2021_Mar_10_1809,cal_abstract,2020.2.4,60.00412825957584,
,Fix1,stimuli/Sad/50.jpg,left,,,,,,,,,,,0,77,77,77,,,,,,,,,,,,,,,,,,,,,,,,,,,,,,,,,,,449.23919550003484,None,449.23919550003484,None,left,1,1.1812064000405371,449.23919550003484,None,1,450.43698079977185,None,,,,,,,,,,,,,,,,,,,,,,,,,,,,,,,,,,,,,,,,,,,,,,,,,,,,,,,,,,,,,,,,,,,40,Female,23,001,2021_Mar_10_1809,cal_abstract,2020.2.4,60.00412825957584,
,Fix2,stimuli/Wealth/50.jpg,right,,,,,,,,,,,0,78,78,78,,,,,,,,,,,,,,,,,,,,,,,,,,,,,,,,,,,451.22848469996825,None,451.22848469996825,None,right,1,0.9645189000293612,451.22848469996825,None,1,452.2195131997578,None,,,,,,,,,,,,,,,,,,,,,,,,,,,,,,,,,,,,,,,,,,,,,,,,,,,,,,,,,,,,,,,,,,,40,Female,23,001,2021_Mar_10_1809,cal_abstract,2020.2.4,60.00412825957584,
,Fix2,stimuli/Wealth/13.jpg,right,,,,,,,,,,,0,79,79,79,,,,,,,,,,,,,,,,,,,,,,,,,,,,,,,,,,,453.043586099986,None,453.043586099986,None,right,1,0.6888425000943244,453.043586099986,None,1,453.75364629970863,None,,,,,,,,,,,,,,,,,,,,,,,,,,,,,,,,,,,,,,,,,,,,,,,,,,,,,,,,,,,,,,,,,,,40,Female,23,001,2021_Mar_10_1809,cal_abstract,2020.2.4,60.00412825957584,
,Fix1,stimuli/Sad/5.jpg,left,,,,,,,,,,,0,80,80,80,,,,,,,,,,,,,,,,,,,,,,,,,,,,,,,,,,,454.559810699895,None,454.559810699895,None,left,1,1.4013423998840153,454.559810699895,None,1,455.98205900005996,None,,,,,,,,,,,,,,,,,,,,,,,,,,,,,,,,,,,,,,,,,,,,,,,,,,,,,,,,,,,,,,,,,,,40,Female,23,001,2021_Mar_10_1809,cal_abstract,2020.2.4,60.00412825957584,
,Fix1,stimuli/Sad/28.jpg,left,,,,,,,,,,,0,81,81,81,,,,,,,,,,,,,,,,,,,,,,,,,,,,,,,,,,,456.77178329974413,None,456.77178329974413,None,left,1,0.9609709000214934,456.77178329974413,None,1,457.7479380997829,None,,,,,,,,,,,,,,,,,,,,,,,,,,,,,,,,,,,,,,,,,,,,,,,,,,,,,,,,,,,,,,,,,,,40,Female,23,001,2021_Mar_10_1809,cal_abstract,2020.2.4,60.00412825957584,
,Fix2,stimuli/Wealth/44.jpg,right,,,,,,,,,,,0,82,82,82,,,,,,,,,,,,,,,,,,,,,,,,,,,,,,,,,,,458.53975979983807,None,458.53975979983807,None,right,1,0.7249334002844989,458.53975979983807,None,1,459.28250649990514,None,,,,,,,,,,,,,,,,,,,,,,,,,,,,,,,,,,,,,,,,,,,,,,,,,,,,,,,,,,,,,,,,,,,40,Female,23,001,2021_Mar_10_1809,cal_abstract,2020.2.4,60.00412825957584,
,Cond,stimuli/Healthy/26.jpg,left,,,,,,,,,,,0,83,83,83,,,,,,,,,,,,,,,,,,,,,,,,,,,,,,,,,,,460.0863742996007,None,460.0863742996007,None,right,0,1.1864183000288904,460.0863742996007,None,0,461.29687799979,None,,,,,,,,,,,,,,,,,,,,,,,,,,,,,,,,,,,,,,,,,,,,,,,,,,,,,,,,,,,,,,,,,,,40,Female,23,001,2021_Mar_10_1809,cal_abstract,2020.2.4,60.00412825957584,
,Cond,stimuli/Healthy/56.jpg,right,,,,,,,,,,,0,84,84,84,,,,,,,,,,,,,,,,,,,,,,,,,,,,,,,,,,,462.09992169961333,None,462.09992169961333,None,right,1,0.6330618998035789,462.09992169961333,None,1,462.76893809996545,None,,,,,,,,,,,,,,,,,,,,,,,,,,,,,,,,,,,,,,,,,,,,,,,,,,,,,,,,,,,,,,,,,,,40,Female,23,001,2021_Mar_10_1809,cal_abstract,2020.2.4,60.00412825957584,
,Cond,stimuli/Healthy/39.jpg,left,,,,,,,,,,,0,85,85,85,,,,,,,,,,,,,,,,,,,,,,,,,,,,,,,,,,,463.5784934996627,None,463.5784934996627,None,left,1,0.6691024000756443,463.5784934996627,None,1,464.2772395997308,None,,,,,,,,,,,,,,,,,,,,,,,,,,,,,,,,,,,,,,,,,,,,,,,,,,,,,,,,,,,,,,,,,,,40,Female,23,001,2021_Mar_10_1809,cal_abstract,2020.2.4,60.00412825957584,
,Fix1,stimuli/Sad/8.jpg,left,,,,,,,,,,,0,86,86,86,,,,,,,,,,,,,,,,,,,,,,,,,,,,,,,,,,,465.0827558999881,None,465.0827558999881,None,left,1,1.728794400114566,465.0827558999881,None,1,466.839709199965,None,,,,,,,,,,,,,,,,,,,,,,,,,,,,,,,,,,,,,,,,,,,,,,,,,,,,,,,,,,,,,,,,,,,40,Female,23,001,2021_Mar_10_1809,cal_abstract,2020.2.4,60.00412825957584,
,Fix1,stimuli/Sad/36.jpg,left,,,,,,,,,,,0,87,87,87,,,,,,,,,,,,,,,,,,,,,,,,,,,,,,,,,,,467.6198107996024,None,467.6198107996024,None,left,1,1.7170069999992847,467.6198107996024,None,1,469.35468730004504,None,,,,,,,,,,,,,,,,,,,,,,,,,,,,,,,,,,,,,,,,,,,,,,,,,,,,,,,,,,,,,,,,,,,40,Female,23,001,2021_Mar_10_1809,cal_abstract,2020.2.4,60.00412825957584,
,Fix2,stimuli/Wealth/43.jpg,right,,,,,,,,,,,0,88,88,88,,,,,,,,,,,,,,,,,,,,,,,,,,,,,,,,,,,470.13479409972206,None,470.13479409972206,None,right,1,0.7181708998978138,470.13479409972206,None,1,470.8699115999043,None,,,,,,,,,,,,,,,,,,,,,,,,,,,,,,,,,,,,,,,,,,,,,,,,,,,,,,,,,,,,,,,,,,,40,Female,23,001,2021_Mar_10_1809,cal_abstract,2020.2.4,60.00412825957584,
,Cond,stimuli/Healthy/11.jpg,left,,,,,,,,,,,0,89,89,89,,,,,,,,,,,,,,,,,,,,,,,,,,,,,,,,,,,471.6555947996676,None,471.6555947996676,None,right,0,0.7428141999989748,471.6555947996676,None,0,472.4305439000018,None,,,,,,,,,,,,,,,,,,,,,,,,,,,,,,,,,,,,,,,,,,,,,,,,,,,,,,,,,,,,,,,,,,,40,Female,23,001,2021_Mar_10_1809,cal_abstract,2020.2.4,60.00412825957584,
,Cond,stimuli/Healthy/64.jpg,right,,,,,,,,,,,0,90,90,90,,,,,,,,,,,,,,,,,,,,,,,,,,,,,,,,,,,473.2050603996031,None,473.2050603996031,None,right,1,0.8739816998131573,473.2050603996031,None,1,474.1098931999877,None,,,,,,,,,,,,,,,,,,,,,,,,,,,,,,,,,,,,,,,,,,,,,,,,,,,,,,,,,,,,,,,,,,,40,Female,23,001,2021_Mar_10_1809,cal_abstract,2020.2.4,60.00412825957584,
,Cond,stimuli/Healthy/15.jpg,left,,,,,,,,,,,0,91,91,91,,,,,,,,,,,,,,,,,,,,,,,,,,,,,,,,,,,474.8886341997422,None,474.8886341997422,None,left,1,2.6885551996529102,474.8886341997422,None,1,477.59830509964377,None,,,,,,,,,,,,,,,,,,,,,,,,,,,,,,,,,,,,,,,,,,,,,,,,,,,,,,,,,,,,,,,,,,,40,Female,23,001,2021_Mar_10_1809,cal_abstract,2020.2.4,60.00412825957584,
,Fix2,stimuli/Wealth/27.jpg,right,,,,,,,,,,,0,92,92,92,,,,,,,,,,,,,,,,,,,,,,,,,,,,,,,,,,,478.3952933996916,None,478.3952933996916,None,right,1,0.8032801998779178,478.3952933996916,None,1,479.22998339962214,None,,,,,,,,,,,,,,,,,,,,,,,,,,,,,,,,,,,,,,,,,,,,,,,,,,,,,,,,,,,,,,,,,,,40,Female,23,001,2021_Mar_10_1809,cal_abstract,2020.2.4,60.00412825957584,
,Fix1,stimuli/Sad/35.jpg,left,,,,,,,,,,,0,93,93,93,,,,,,,,,,,,,,,,,,,,,,,,,,,,,,,,,,,480.00743039976805,None,480.00743039976805,None,left,1,0.9253082000650465,480.00743039976805,None,1,480.9618345997296,None,,,,,,,,,,,,,,,,,,,,,,,,,,,,,,,,,,,,,,,,,,,,,,,,,,,,,,,,,,,,,,,,,,,40,Female,23,001,2021_Mar_10_1809,cal_abstract,2020.2.4,60.00412825957584,
,Cond,stimuli/Healthy/30.jpg,right,,,,,,,,,,,0,94,94,94,,,,,,,,,,,,,,,,,,,,,,,,,,,,,,,,,,,481.75099459988996,None,481.75099459988996,None,right,1,1.653671299573034,481.75099459988996,None,1,483.42672879993916,None,,,,,,,,,,,,,,,,,,,,,,,,,,,,,,,,,,,,,,,,,,,,,,,,,,,,,,,,,,,,,,,,,,,40,Female,23,001,2021_Mar_10_1809,cal_abstract,2020.2.4,60.00412825957584,
,Fix2,stimuli/Wealth/12.jpg,right,,,,,,,,,,,0,95,95,95,,,,,,,,,,,,,,,,,,,,,,,,,,,,,,,,,,,484.23737109964713,None,484.23737109964713,None,right,1,1.289344099815935,484.23737109964713,None,1,485.55822789995,None,,,,,,,,,,,,,,,,,,,,,,,,,,,,,,,,,,,,,,,,,,,,,,,,,,,,,,,,,,,,,,,,,,,40,Female,23,001,2021_Mar_10_1809,cal_abstract,2020.2.4,60.00412825957584,
,Fix1,stimuli/Sad/51.jpg,left,,,,,,,,,,,0,96,96,96,,,,,,,,,,,,,,,,,,,,,,,,,,,,,,,,,,,486.343856099993,None,486.343856099993,None,left,1,1.0010245996527374,486.343856099993,None,1,487.3732628999278,None,,,,,,,,,,,,,,,,,,,,,,,,,,,,,,,,,,,,,,,,,,,,,,,,,,,,,,,,,,,,,,,,,,,40,Female,23,001,2021_Mar_10_1809,cal_abstract,2020.2.4,60.00412825957584,
,Fix2,stimuli/Wealth/31.jpg,right,,,,,,,,,,,0,97,97,97,,,,,,,,,,,,,,,,,,,,,,,,,,,,,,,,,,,488.15634759981185,None,488.15634759981185,None,right,1,1.3397579002194107,488.15634759981185,None,1,489.5216401000507,None,,,,,,,,,,,,,,,,,,,,,,,,,,,,,,,,,,,,,,,,,,,,,,,,,,,,,,,,,,,,,,,,,,,40,Female,23,001,2021_Mar_10_1809,cal_abstract,2020.2.4,60.00412825957584,
,Cond,stimuli/Healthy/5.jpg,left,,,,,,,,,,,0,98,98,98,,,,,,,,,,,,,,,,,,,,,,,,,,,,,,,,,,,490.3261715997942,None,490.3261715997942,None,left,1,0.8846020996570587,490.3261715997942,None,1,491.236806999892,None,,,,,,,,,,,,,,,,,,,,,,,,,,,,,,,,,,,,,,,,,,,,,,,,,,,,,,,,,,,,,,,,,,,40,Female,23,001,2021_Mar_10_1809,cal_abstract,2020.2.4,60.00412825957584,
,Fix1,stimuli/Sad/43.jpg,left,,,,,,,,,,,0,99,99,99,,,,,,,,,,,,,,,,,,,,,,,,,,,,,,,,,,,492.03082349989563,None,492.03082349989563,None,left,1,0.809177199844271,492.03082349989563,None,1,492.868057299871,None,,,,,,,,,,,,,,,,,,,,,,,,,,,,,,,,,,,,,,,,,,,,,,,,,,,,,,,,,,,,,,,,,,,40,Female,23,001,2021_Mar_10_1809,cal_abstract,2020.2.4,60.00412825957584,
,Cond,stimuli/Healthy/61.jpg,right,,,,,,,,,,,0,100,100,100,,,,,,,,,,,,,,,,,,,,,,,,,,,,,,,,,,,493.62795939994976,None,493.62795939994976,None,right,1,8.100250099785626,493.62795939994976,None,1,501.7473695999943,None,,,,,,,,,,,,,,,,,,,,,,,,,,,,,,,,,,,,,,,,,,,,,,,,,,,,,,,,,,,,,,,,,,,40,Female,23,001,2021_Mar_10_1809,cal_abstract,2020.2.4,60.00412825957584,
,Fix2,stimuli/Wealth/59.jpg,right,,,,,,,,,,,0,101,101,101,,,,,,,,,,,,,,,,,,,,,,,,,,,,,,,,,,,502.5526713998988,None,502.5526713998988,None,right,1,0.7795354002155364,502.5526713998988,None,1,503.3608740000054,None,,,,,,,,,,,,,,,,,,,,,,,,,,,,,,,,,,,,,,,,,,,,,,,,,,,,,,,,,,,,,,,,,,,40,Female,23,001,2021_Mar_10_1809,cal_abstract,2020.2.4,60.00412825957584,
,Fix1,stimuli/Sad/11.jpg,left,,,,,,,,,,,0,102,102,102,,,,,,,,,,,,,,,,,,,,,,,,,,,,,,,,,,,504.13843009993434,None,504.13843009993434,None,left,1,0.9262963002547622,504.13843009993434,None,1,505.09140369994566,None,,,,,,,,,,,,,,,,,,,,,,,,,,,,,,,,,,,,,,,,,,,,,,,,,,,,,,,,,,,,,,,,,,,40,Female,23,001,2021_Mar_10_1809,cal_abstract,2020.2.4,60.00412825957584,
,Fix2,stimuli/Wealth/54.jpg,right,,,,,,,,,,,0,103,103,103,,,,,,,,,,,,,,,,,,,,,,,,,,,,,,,,,,,505.88555939961225,None,505.88555939961225,None,right,1,0.7351760999299586,505.88555939961225,None,1,506.64466329989955,None,,,,,,,,,,,,,,,,,,,,,,,,,,,,,,,,,,,,,,,,,,,,,,,,,,,,,,,,,,,,,,,,,,,40,Female,23,001,2021_Mar_10_1809,cal_abstract,2020.2.4,60.00412825957584,
,Cond,stimuli/Healthy/21.jpg,left,,,,,,,,,,,0,104,104,104,,,,,,,,,,,,,,,,,,,,,,,,,,,,,,,,,,,507.47734449990094,None,507.47734449990094,None,left,1,0.6678365999832749,507.47734449990094,None,1,508.1744753997773,None,,,,,,,,,,,,,,,,,,,,,,,,,,,,,,,,,,,,,,,,,,,,,,,,,,,,,,,,,,,,,,,,,,,40,Female,23,001,2021_Mar_10_1809,cal_abstract,2020.2.4,60.00412825957584,
,Fix2,stimuli/Wealth/18.jpg,right,,,,,,,,,,,0,105,105,105,,,,,,,,,,,,,,,,,,,,,,,,,,,,,,,,,,,508.9765935000032,None,508.9765935000032,None,right,1,1.1207030001096427,508.9765935000032,None,1,510.12452519964427,None,,,,,,,,,,,,,,,,,,,,,,,,,,,,,,,,,,,,,,,,,,,,,,,,,,,,,,,,,,,,,,,,,,,40,Female,23,001,2021_Mar_10_1809,cal_abstract,2020.2.4,60.00412825957584,
,Fix2,stimuli/Wealth/55.jpg,right,,,,,,,,,,,0,106,106,106,,,,,,,,,,,,,,,,,,,,,,,,,,,,,,,,,,,510.9419316998683,None,510.9419316998683,None,right,1,0.8444799999706447,510.9419316998683,None,1,511.8034035996534,None,,,,,,,,,,,,,,,,,,,,,,,,,,,,,,,,,,,,,,,,,,,,,,,,,,,,,,,,,,,,,,,,,,,40,Female,23,001,2021_Mar_10_1809,cal_abstract,2020.2.4,60.00412825957584,
,Fix1,stimuli/Sad/6.jpg,left,,,,,,,,,,,0,107,107,107,,,,,,,,,,,,,,,,,,,,,,,,,,,,,,,,,,,512.588300799951,None,512.588300799951,None,left,1,0.8259646999649704,512.588300799951,None,1,513.4351165997796,None,,,,,,,,,,,,,,,,,,,,,,,,,,,,,,,,,,,,,,,,,,,,,,,,,,,,,,,,,,,,,,,,,,,40,Female,23,001,2021_Mar_10_1809,cal_abstract,2020.2.4,60.00412825957584,
,Fix2,stimuli/Wealth/35.jpg,right,,,,,,,,,,,0,108,108,108,,,,,,,,,,,,,,,,,,,,,,,,,,,,,,,,,,,514.2285459996201,None,514.2285459996201,None,right,1,1.8067103996872902,514.2285459996201,None,1,516.0660795997828,None,,,,,,,,,,,,,,,,,,,,,,,,,,,,,,,,,,,,,,,,,,,,,,,,,,,,,,,,,,,,,,,,,,,40,Female,23,001,2021_Mar_10_1809,cal_abstract,2020.2.4,60.00412825957584,
,Fix2,stimuli/Wealth/32.jpg,right,,,,,,,,,,,0,109,109,109,,,,,,,,,,,,,,,,,,,,,,,,,,,,,,,,,,,516.8409500997514,None,516.8409500997514,None,right,1,0.902732000220567,516.8409500997514,None,1,517.7646705997176,None,,,,,,,,,,,,,,,,,,,,,,,,,,,,,,,,,,,,,,,,,,,,,,,,,,,,,,,,,,,,,,,,,,,40,Female,23,001,2021_Mar_10_1809,cal_abstract,2020.2.4,60.00412825957584,
,Cond,stimuli/Healthy/46.jpg,left,,,,,,,,,,,0,110,110,110,,,,,,,,,,,,,,,,,,,,,,,,,,,,,,,,,,,518.5515411999077,None,518.5515411999077,None,left,1,2.690704899840057,518.5515411999077,None,1,521.2648954996839,None,,,,,,,,,,,,,,,,,,,,,,,,,,,,,,,,,,,,,,,,,,,,,,,,,,,,,,,,,,,,,,,,,,,40,Female,23,001,2021_Mar_10_1809,cal_abstract,2020.2.4,60.00412825957584,
,Fix1,stimuli/Sad/34.jpg,left,,,,,,,,,,,0,111,111,111,,,,,,,,,,,,,,,,,,,,,,,,,,,,,,,,,,,522.0668694996275,None,522.0668694996275,None,left,1,0.8867349000647664,522.0668694996275,None,1,522.9772321996279,None,,,,,,,,,,,,,,,,,,,,,,,,,,,,,,,,,,,,,,,,,,,,,,,,,,,,,,,,,,,,,,,,,,,40,Female,23,001,2021_Mar_10_1809,cal_abstract,2020.2.4,60.00412825957584,
,Fix2,stimuli/Wealth/41.jpg,right,,,,,,,,,,,0,112,112,112,,,,,,,,,,,,,,,,,,,,,,,,,,,,,,,,,,,523.7527387998998,None,523.7527387998998,None,right,1,1.8501003999263048,523.7527387998998,None,1,525.6252353000455,None,,,,,,,,,,,,,,,,,,,,,,,,,,,,,,,,,,,,,,,,,,,,,,,,,,,,,,,,,,,,,,,,,,,40,Female,23,001,2021_Mar_10_1809,cal_abstract,2020.2.4,60.00412825957584,
,Fix2,stimuli/Wealth/38.jpg,right,,,,,,,,,,,0,113,113,113,,,,,,,,,,,,,,,,,,,,,,,,,,,,,,,,,,,526.4197124997154,None,526.4197124997154,None,right,1,1.0208967002108693,526.4197124997154,None,1,527.4599229996093,None,,,,,,,,,,,,,,,,,,,,,,,,,,,,,,,,,,,,,,,,,,,,,,,,,,,,,,,,,,,,,,,,,,,40,Female,23,001,2021_Mar_10_1809,cal_abstract,2020.2.4,60.00412825957584,
,Fix1,stimuli/Sad/23.jpg,left,,,,,,,,,,,0,114,114,114,,,,,,,,,,,,,,,,,,,,,,,,,,,,,,,,,,,528.2613609000109,None,528.2613609000109,None,left,1,1.1683595003560185,528.2613609000109,None,1,529.4555611000396,None,,,,,,,,,,,,,,,,,,,,,,,,,,,,,,,,,,,,,,,,,,,,,,,,,,,,,,,,,,,,,,,,,,,40,Female,23,001,2021_Mar_10_1809,cal_abstract,2020.2.4,60.00412825957584,
,Fix1,stimuli/Sad/56.jpg,left,,,,,,,,,,,0,115,115,115,,,,,,,,,,,,,,,,,,,,,,,,,,,,,,,,,,,530.2616167999804,None,530.2616167999804,None,left,1,0.8329366999678314,530.2616167999804,None,1,531.1225153999403,None,,,,,,,,,,,,,,,,,,,,,,,,,,,,,,,,,,,,,,,,,,,,,,,,,,,,,,,,,,,,,,,,,,,40,Female,23,001,2021_Mar_10_1809,cal_abstract,2020.2.4,60.00412825957584,
,Fix1,stimuli/Sad/18.jpg,left,,,,,,,,,,,0,116,116,116,,,,,,,,,,,,,,,,,,,,,,,,,,,,,,,,,,,531.9335592999123,None,531.9335592999123,None,left,1,1.0383562999777496,531.9335592999123,None,1,533.0021655997261,None,,,,,,,,,,,,,,,,,,,,,,,,,,,,,,,,,,,,,,,,,,,,,,,,,,,,,,,,,,,,,,,,,,,40,Female,23,001,2021_Mar_10_1809,cal_abstract,2020.2.4,60.00412825957584,
,Fix1,stimuli/Sad/48.jpg,left,,,,,,,,,,,0,117,117,117,,,,,,,,,,,,,,,,,,,,,,,,,,,,,,,,,,,533.7909513995983,None,533.7909513995983,None,left,1,0.7091947002336383,533.7909513995983,None,1,534.5180342998356,None,,,,,,,,,,,,,,,,,,,,,,,,,,,,,,,,,,,,,,,,,,,,,,,,,,,,,,,,,,,,,,,,,,,40,Female,23,001,2021_Mar_10_1809,cal_abstract,2020.2.4,60.00412825957584,
,Fix1,stimuli/Sad/24.jpg,left,,,,,,,,,,,0,118,118,118,,,,,,,,,,,,,,,,,,,,,,,,,,,,,,,,,,,535.2994434996508,None,535.2994434996508,None,left,1,0.8497687000781298,535.2994434996508,None,1,536.1651567998342,None,,,,,,,,,,,,,,,,,,,,,,,,,,,,,,,,,,,,,,,,,,,,,,,,,,,,,,,,,,,,,,,,,,,40,Female,23,001,2021_Mar_10_1809,cal_abstract,2020.2.4,60.00412825957584,
,Fix2,stimuli/Wealth/7.jpg,right,,,,,,,,,,,0,119,119,119,,,,,,,,,,,,,,,,,,,,,,,,,,,,,,,,,,,536.9488515998237,None,536.9488515998237,None,right,1,0.8311638999730349,536.9488515998237,None,1,537.798399399966,None,,,,,,,,,,,,,,,,,,,,,,,,,,,,,,,,,,,,,,,,,,,,,,,,,,,,,,,,,,,,,,,,,,,40,Female,23,001,2021_Mar_10_1809,cal_abstract,2020.2.4,60.00412825957584,
,Fix2,stimuli/Wealth/9.jpg,right,,,,,,,,,,,0,120,120,120,,,,,,,,,,,,,,,,,,,,,,,,,,,,,,,,,,,538.5806606998667,None,538.5806606998667,None,right,1,0.7339298999868333,538.5806606998667,None,1,539.3305914998055,None,,,,,,,,,,,,,,,,,,,,,,,,,,,,,,,,,,,,,,,,,,,,,,,,,,,,,,,,,,,,,,,,,,,40,Female,23,001,2021_Mar_10_1809,cal_abstract,2020.2.4,60.00412825957584,
,Fix2,stimuli/Wealth/48.jpg,right,,,,,,,,,,,0,121,121,121,,,,,,,,,,,,,,,,,,,,,,,,,,,,,,,,,,,540.0993224997073,None,540.0993224997073,None,right,1,0.8391649001277983,540.0993224997073,None,1,540.9626849996857,None,,,,,,,,,,,,,,,,,,,,,,,,,,,,,,,,,,,,,,,,,,,,,,,,,,,,,,,,,,,,,,,,,,,40,Female,23,001,2021_Mar_10_1809,cal_abstract,2020.2.4,60.00412825957584,
,Fix1,stimuli/Sad/17.jpg,left,,,,,,,,,,,0,122,122,122,,,,,,,,,,,,,,,,,,,,,,,,,,,,,,,,,,,541.747254199814,None,541.747254199814,None,left,1,0.8458218001760542,541.747254199814,None,1,542.6115120998584,None,,,,,,,,,,,,,,,,,,,,,,,,,,,,,,,,,,,,,,,,,,,,,,,,,,,,,,,,,,,,,,,,,,,40,Female,23,001,2021_Mar_10_1809,cal_abstract,2020.2.4,60.00412825957584,
,Fix2,stimuli/Wealth/40.jpg,right,,,,,,,,,,,0,123,123,123,,,,,,,,,,,,,,,,,,,,,,,,,,,,,,,,,,,543.4014490996487,None,543.4014490996487,None,right,1,0.7879143999889493,543.4014490996487,None,1,544.2100571999326,None,,,,,,,,,,,,,,,,,,,,,,,,,,,,,,,,,,,,,,,,,,,,,,,,,,,,,,,,,,,,,,,,,,,40,Female,23,001,2021_Mar_10_1809,cal_abstract,2020.2.4,60.00412825957584,
,Cond,stimuli/Healthy/38.jpg,left,,,,,,,,,,,0,124,124,124,,,,,,,,,,,,,,,,,,,,,,,,,,,,,,,,,,,544.9942719000392,None,544.9942719000392,None,right,0,1.1984808999113739,544.9942719000392,None,0,546.21756489994,None,,,,,,,,,,,,,,,,,,,,,,,,,,,,,,,,,,,,,,,,,,,,,,,,,,,,,,,,,,,,,,,,,,,40,Female,23,001,2021_Mar_10_1809,cal_abstract,2020.2.4,60.00412825957584,
,Cond,stimuli/Healthy/58.jpg,right,,,,,,,,,,,0,125,125,125,,,,,,,,,,,,,,,,,,,,,,,,,,,,,,,,,,,547.0025619999506,None,547.0025619999506,None,right,1,2.455597299616784,547.0025619999506,None,1,549.497195399832,None,,,,,,,,,,,,,,,,,,,,,,,,,,,,,,,,,,,,,,,,,,,,,,,,,,,,,,,,,,,,,,,,,,,40,Female,23,001,2021_Mar_10_1809,cal_abstract,2020.2.4,60.00412825957584,
,Fix1,stimuli/Sad/12.jpg,left,,,,,,,,,,,0,126,126,126,,,,,,,,,,,,,,,,,,,,,,,,,,,,,,,,,,,550.2889545997605,None,550.2889545997605,None,left,1,1.4464032999239862,550.2889545997605,None,1,551.754428199958,None,,,,,,,,,,,,,,,,,,,,,,,,,,,,,,,,,,,,,,,,,,,,,,,,,,,,,,,,,,,,,,,,,,,40,Female,23,001,2021_Mar_10_1809,cal_abstract,2020.2.4,60.00412825957584,
,Fix2,stimuli/Wealth/30.jpg,right,,,,,,,,,,,0,127,127,127,,,,,,,,,,,,,,,,,,,,,,,,,,,,,,,,,,,552.5451275999658,None,552.5451275999658,None,right,1,1.1125720995478332,552.5451275999658,None,1,553.6856921999715,None,,,,,,,,,,,,,,,,,,,,,,,,,,,,,,,,,,,,,,,,,,,,,,,,,,,,,,,,,,,,,,,,,,,40,Female,23,001,2021_Mar_10_1809,cal_abstract,2020.2.4,60.00412825957584,
,Cond,stimuli/Healthy/17.jpg,left,,,,,,,,,,,0,128,128,128,,,,,,,,,,,,,,,,,,,,,,,,,,,,,,,,,,,554.4673727997579,None,554.4673727997579,None,left,1,0.7818354996852577,554.4673727997579,None,1,555.2671117996797,None,,,,,,,,,,,,,,,,,,,,,,,,,,,,,,,,,,,,,,,,,,,,,,,,,,,,,,,,,,,,,,,,,,,40,Female,23,001,2021_Mar_10_1809,cal_abstract,2020.2.4,60.00412825957584,
,Fix2,stimuli/Wealth/36.jpg,right,,,,,,,,,,,0,129,129,129,,,,,,,,,,,,,,,,,,,,,,,,,,,,,,,,,,,556.0700805997476,None,556.0700805997476,None,right,1,1.137263999786228,556.0700805997476,None,1,557.2320690997876,None,,,,,,,,,,,,,,,,,,,,,,,,,,,,,,,,,,,,,,,,,,,,,,,,,,,,,,,,,,,,,,,,,,,40,Female,23,001,2021_Mar_10_1809,cal_abstract,2020.2.4,60.00412825957584,
,Cond,stimuli/Healthy/16.jpg,left,,,,,,,,,,,0,130,130,130,,,,,,,,,,,,,,,,,,,,,,,,,,,,,,,,,,,558.0100954999216,None,558.0100954999216,None,left,1,0.6921207997947931,558.0100954999216,None,1,558.7308657998219,None,,,,,,,,,,,,,,,,,,,,,,,,,,,,,,,,,,,,,,,,,,,,,,,,,,,,,,,,,,,,,,,,,,,40,Female,23,001,2021_Mar_10_1809,cal_abstract,2020.2.4,60.00412825957584,
,Cond,stimuli/Healthy/22.jpg,right,,,,,,,,,,,0,131,131,131,,,,,,,,,,,,,,,,,,,,,,,,,,,,,,,,,,,559.508421599865,None,559.508421599865,None,right,1,0.803465100005269,559.508421599865,None,1,560.3300695000216,None,,,,,,,,,,,,,,,,,,,,,,,,,,,,,,,,,,,,,,,,,,,,,,,,,,,,,,,,,,,,,,,,,,,40,Female,23,001,2021_Mar_10_1809,cal_abstract,2020.2.4,60.00412825957584,
,Fix1,stimuli/Sad/52.jpg,left,,,,,,,,,,,0,132,132,132,,,,,,,,,,,,,,,,,,,,,,,,,,,,,,,,,,,561.1053994996473,None,561.1053994996473,None,left,1,1.1997694997116923,561.1053994996473,None,1,562.3299870998599,None,,,,,,,,,,,,,,,,,,,,,,,,,,,,,,,,,,,,,,,,,,,,,,,,,,,,,,,,,,,,,,,,,,,40,Female,23,001,2021_Mar_10_1809,cal_abstract,2020.2.4,60.00412825957584,
,Fix1,stimuli/Sad/19.jpg,left,,,,,,,,,,,0,133,133,133,,,,,,,,,,,,,,,,,,,,,,,,,,,,,,,,,,,563.1311160000041,None,563.1311160000041,None,left,1,0.9930871999822557,563.1311160000041,None,1,564.1484823999926,None,,,,,,,,,,,,,,,,,,,,,,,,,,,,,,,,,,,,,,,,,,,,,,,,,,,,,,,,,,,,,,,,,,,40,Female,23,001,2021_Mar_10_1809,cal_abstract,2020.2.4,60.00412825957584,
,Fix2,stimuli/Wealth/23.jpg,right,,,,,,,,,,,0,134,134,134,,,,,,,,,,,,,,,,,,,,,,,,,,,,,,,,,,,564.9348924998194,None,564.9348924998194,None,right,1,0.7502561002038419,564.9348924998194,None,1,565.7114513996057,None,,,,,,,,,,,,,,,,,,,,,,,,,,,,,,,,,,,,,,,,,,,,,,,,,,,,,,,,,,,,,,,,,,,40,Female,23,001,2021_Mar_10_1809,cal_abstract,2020.2.4,60.00412825957584,
,Fix2,stimuli/Wealth/19.jpg,right,,,,,,,,,,,0,135,135,135,,,,,,,,,,,,,,,,,,,,,,,,,,,,,,,,,,,566.5102049997076,None,566.5102049997076,None,right,1,0.7790411999449134,566.5102049997076,None,1,567.3071494000033,None,,,,,,,,,,,,,,,,,,,,,,,,,,,,,,,,,,,,,,,,,,,,,,,,,,,,,,,,,,,,,,,,,,,40,Female,23,001,2021_Mar_10_1809,cal_abstract,2020.2.4,60.00412825957584,
,Fix2,stimuli/Wealth/26.jpg,right,,,,,,,,,,,0,136,136,136,,,,,,,,,,,,,,,,,,,,,,,,,,,,,,,,,,,568.1024977997877,None,568.1024977997877,None,left,0,1.1205388996750116,568.1024977997877,None,0,569.2483593998477,None,,,,,,,,,,,,,,,,,,,,,,,,,,,,,,,,,,,,,,,,,,,,,,,,,,,,,,,,,,,,,,,,,,,40,Female,23,001,2021_Mar_10_1809,cal_abstract,2020.2.4,60.00412825957584,
,Fix2,stimuli/Wealth/8.jpg,right,,,,,,,,,,,0,137,137,137,,,,,,,,,,,,,,,,,,,,,,,,,,,,,,,,,,,570.0407590996474,None,570.0407590996474,None,right,1,1.0144592998549342,570.0407590996474,None,1,571.0770973996259,None,,,,,,,,,,,,,,,,,,,,,,,,,,,,,,,,,,,,,,,,,,,,,,,,,,,,,,,,,,,,,,,,,,,40,Female,23,001,2021_Mar_10_1809,cal_abstract,2020.2.4,60.00412825957584,
,Fix1,stimuli/Sad/10.jpg,left,,,,,,,,,,,0,138,138,138,,,,,,,,,,,,,,,,,,,,,,,,,,,,,,,,,,,571.9026194997132,None,571.9026194997132,None,left,1,1.5206830999813974,571.9026194997132,None,1,573.452595599927,None,,,,,,,,,,,,,,,,,,,,,,,,,,,,,,,,,,,,,,,,,,,,,,,,,,,,,,,,,,,,,,,,,,,40,Female,23,001,2021_Mar_10_1809,cal_abstract,2020.2.4,60.00412825957584,
,Cond,stimuli/Healthy/42.jpg,right,,,,,,,,,,,0,139,139,139,,,,,,,,,,,,,,,,,,,,,,,,,,,,,,,,,,,574.2604459999129,None,574.2604459999129,None,left,0,0.7275482001714408,574.2604459999129,None,0,575.0213893000036,None,,,,,,,,,,,,,,,,,,,,,,,,,,,,,,,,,,,,,,,,,,,,,,,,,,,,,,,,,,,,,,,,,,,40,Female,23,001,2021_Mar_10_1809,cal_abstract,2020.2.4,60.00412825957584,
,Fix2,stimuli/Wealth/2.jpg,right,,,,,,,,,,,0,140,140,140,,,,,,,,,,,,,,,,,,,,,,,,,,,,,,,,,,,575.8231633999385,None,575.8231633999385,None,right,1,1.9590203003026545,575.8231633999385,None,1,577.8115433999337,None,,,,,,,,,,,,,,,,,,,,,,,,,,,,,,,,,,,,,,,,,,,,,,,,,,,,,,,,,,,,,,,,,,,40,Female,23,001,2021_Mar_10_1809,cal_abstract,2020.2.4,60.00412825957584,
,Fix1,stimuli/Sad/27.jpg,left,,,,,,,,,,,0,141,141,141,,,,,,,,,,,,,,,,,,,,,,,,,,,,,,,,,,,578.5967484000139,None,578.5967484000139,None,left,1,1.040774299763143,578.5967484000139,None,1,579.6638442999683,None,,,,,,,,,,,,,,,,,,,,,,,,,,,,,,,,,,,,,,,,,,,,,,,,,,,,,,,,,,,,,,,,,,,40,Female,23,001,2021_Mar_10_1809,cal_abstract,2020.2.4,60.00412825957584,
,Fix1,stimuli/Sad/0.jpg,left,,,,,,,,,,,0,142,142,142,,,,,,,,,,,,,,,,,,,,,,,,,,,,,,,,,,,580.4457784998231,None,580.4457784998231,None,left,1,0.877379700075835,580.4457784998231,None,1,581.3458221000619,None,,,,,,,,,,,,,,,,,,,,,,,,,,,,,,,,,,,,,,,,,,,,,,,,,,,,,,,,,,,,,,,,,,,40,Female,23,001,2021_Mar_10_1809,cal_abstract,2020.2.4,60.00412825957584,
,Fix1,stimuli/Sad/39.jpg,left,,,,,,,,,,,0,143,143,143,,,,,,,,,,,,,,,,,,,,,,,,,,,,,,,,,,,582.1541773998179,None,582.1541773998179,None,left,1,1.6879889001138508,582.1541773998179,None,1,583.861305499915,None,,,,,,,,,,,,,,,,,,,,,,,,,,,,,,,,,,,,,,,,,,,,,,,,,,,,,,,,,,,,,,,,,,,40,Female,23,001,2021_Mar_10_1809,cal_abstract,2020.2.4,60.00412825957584,
,Fix1,stimuli/Sad/22.jpg,left,,,,,,,,,,,0,144,144,144,,,,,,,,,,,,,,,,,,,,,,,,,,,,,,,,,,,584.6498292000033,None,584.6498292000033,None,left,1,0.9318100996315479,584.6498292000033,None,1,585.6100939000025,None,,,,,,,,,,,,,,,,,,,,,,,,,,,,,,,,,,,,,,,,,,,,,,,,,,,,,,,,,,,,,,,,,,,40,Female,23,001,2021_Mar_10_1809,cal_abstract,2020.2.4,60.00412825957584,
,Fix1,stimuli/Sad/25.jpg,left,,,,,,,,,,,0,145,145,145,,,,,,,,,,,,,,,,,,,,,,,,,,,,,,,,,,,586.3937995997258,None,586.3937995997258,None,left,1,0.7655326002277434,586.3937995997258,None,1,587.1748235998675,None,,,,,,,,,,,,,,,,,,,,,,,,,,,,,,,,,,,,,,,,,,,,,,,,,,,,,,,,,,,,,,,,,,,40,Female,23,001,2021_Mar_10_1809,cal_abstract,2020.2.4,60.00412825957584,
,Fix1,stimuli/Sad/53.jpg,left,,,,,,,,,,,0,146,146,146,,,,,,,,,,,,,,,,,,,,,,,,,,,,,,,,,,,587.9767796997912,None,587.9767796997912,None,left,1,0.7680770000442863,587.9767796997912,None,1,588.7734587998129,None,,,,,,,,,,,,,,,,,,,,,,,,,,,,,,,,,,,,,,,,,,,,,,,,,,,,,,,,,,,,,,,,,,,40,Female,23,001,2021_Mar_10_1809,cal_abstract,2020.2.4,60.00412825957584,
,Fix2,stimuli/Wealth/6.jpg,right,,,,,,,,,,,0,147,147,147,,,,,,,,,,,,,,,,,,,,,,,,,,,,,,,,,,,589.5719893998466,None,589.5719893998466,None,right,1,1.1779678999446332,589.5719893998466,None,1,590.772250100039,None,,,,,,,,,,,,,,,,,,,,,,,,,,,,,,,,,,,,,,,,,,,,,,,,,,,,,,,,,,,,,,,,,,,40,Female,23,001,2021_Mar_10_1809,cal_abstract,2020.2.4,60.00412825957584,
,Fix2,stimuli/Wealth/46.jpg,right,,,,,,,,,,,0,148,148,148,,,,,,,,,,,,,,,,,,,,,,,,,,,,,,,,,,,591.5619219997898,None,591.5619219997898,None,right,1,0.7967348997481167,591.5619219997898,None,1,592.3870076998137,None,,,,,,,,,,,,,,,,,,,,,,,,,,,,,,,,,,,,,,,,,,,,,,,,,,,,,,,,,,,,,,,,,,,40,Female,23,001,2021_Mar_10_1809,cal_abstract,2020.2.4,60.00412825957584,
,Fix2,stimuli/Wealth/5.jpg,right,,,,,,,,,,,0,149,149,149,,,,,,,,,,,,,,,,,,,,,,,,,,,,,,,,,,,593.1821160996333,None,593.1821160996333,None,right,1,0.8435499002225697,593.1821160996333,None,1,594.0525035997853,None,,,,,,,,,,,,,,,,,,,,,,,,,,,,,,,,,,,,,,,,,,,,,,,,,,,,,,,,,,,,,,,,,,,40,Female,23,001,2021_Mar_10_1809,cal_abstract,2020.2.4,60.00412825957584,
,Cond,stimuli/Healthy/31.jpg,left,,,,,,,,,,,0,150,150,150,,,,,,,,,,,,,,,,,,,,,,,,,,,,,,,,,,,594.844957199879,None,594.844957199879,None,left,1,1.3903318997472525,594.844957199879,None,1,596.2521222997457,None,,,,,,,,,,,,,,,,,,,,,,,,,,,,,,,,,,,,,,,,,,,,,,,,,,,,,,,,,,,,,,,,,,,40,Female,23,001,2021_Mar_10_1809,cal_abstract,2020.2.4,60.00412825957584,
,Cond,stimuli/Healthy/2.jpg,right,,,,,,,,,,,0,151,151,151,,,,,,,,,,,,,,,,,,,,,,,,,,,,,,,,,,,597.0431550997309,None,597.0431550997309,None,right,1,0.628513999748975,597.0431550997309,None,1,597.701750099659,None,,,,,,,,,,,,,,,,,,,,,,,,,,,,,,,,,,,,,,,,,,,,,,,,,,,,,,,,,,,,,,,,,,,40,Female,23,001,2021_Mar_10_1809,cal_abstract,2020.2.4,60.00412825957584,
,Fix2,stimuli/Wealth/37.jpg,right,,,,,,,,,,,0,152,152,152,,,,,,,,,,,,,,,,,,,,,,,,,,,,,,,,,,,598.5045376997441,None,598.5045376997441,None,left,0,0.9936640998348594,598.5045376997441,None,0,599.5264933998697,None,,,,,,,,,,,,,,,,,,,,,,,,,,,,,,,,,,,,,,,,,,,,,,,,,,,,,,,,,,,,,,,,,,,40,Female,23,001,2021_Mar_10_1809,cal_abstract,2020.2.4,60.00412825957584,
,Fix2,stimuli/Wealth/58.jpg,right,,,,,,,,,,,0,153,153,153,,,,,,,,,,,,,,,,,,,,,,,,,,,,,,,,,,,600.3273858996108,None,600.3273858996108,None,right,1,0.8615117999725044,600.3273858996108,None,1,601.2162744998932,None,,,,,,,,,,,,,,,,,,,,,,,,,,,,,,,,,,,,,,,,,,,,,,,,,,,,,,,,,,,,,,,,,,,40,Female,23,001,2021_Mar_10_1809,cal_abstract,2020.2.4,60.00412825957584,
,Fix2,stimuli/Wealth/34.jpg,right,,,,,,,,,,,0,154,154,154,,,,,,,,,,,,,,,,,,,,,,,,,,,,,,,,,,,602.0168009996414,None,602.0168009996414,None,right,1,0.7746414002031088,602.0168009996414,None,1,602.8116536997259,None,,,,,,,,,,,,,,,,,,,,,,,,,,,,,,,,,,,,,,,,,,,,,,,,,,,,,,,,,,,,,,,,,,,40,Female,23,001,2021_Mar_10_1809,cal_abstract,2020.2.4,60.00412825957584,
,Fix1,stimuli/Sad/57.jpg,left,,,,,,,,,,,0,155,155,155,,,,,,,,,,,,,,,,,,,,,,,,,,,,,,,,,,,603.6170071996748,None,603.6170071996748,None,left,1,1.4888971000909805,603.6170071996748,None,1,605.1294435998425,None,,,,,,,,,,,,,,,,,,,,,,,,,,,,,,,,,,,,,,,,,,,,,,,,,,,,,,,,,,,,,,,,,,,40,Female,23,001,2021_Mar_10_1809,cal_abstract,2020.2.4,60.00412825957584,
,Cond,stimuli/Healthy/1.jpg,right,,,,,,,,,,,0,156,156,156,,,,,,,,,,,,,,,,,,,,,,,,,,,,,,,,,,,605.925206199754,None,605.925206199754,None,right,1,1.5748290996998549,605.925206199754,None,1,607.524585600011,None,,,,,,,,,,,,,,,,,,,,,,,,,,,,,,,,,,,,,,,,,,,,,,,,,,,,,,,,,,,,,,,,,,,40,Female,23,001,2021_Mar_10_1809,cal_abstract,2020.2.4,60.00412825957584,
,Fix1,stimuli/Sad/44.jpg,left,,,,,,,,,,,0,157,157,157,,,,,,,,,,,,,,,,,,,,,,,,,,,,,,,,,,,608.3100033998489,None,608.3100033998489,None,left,1,0.8229548996314406,608.3100033998489,None,1,609.1565676997416,None,,,,,,,,,,,,,,,,,,,,,,,,,,,,,,,,,,,,,,,,,,,,,,,,,,,,,,,,,,,,,,,,,,,40,Female,23,001,2021_Mar_10_1809,cal_abstract,2020.2.4,60.00412825957584,
,Fix1,stimuli/Sad/13.jpg,left,,,,,,,,,,,0,158,158,158,,,,,,,,,,,,,,,,,,,,,,,,,,,,,,,,,,,609.952801999636,None,609.952801999636,None,left,1,0.9781305999495089,609.952801999636,None,1,610.9579537999816,None,,,,,,,,,,,,,,,,,,,,,,,,,,,,,,,,,,,,,,,,,,,,,,,,,,,,,,,,,,,,,,,,,,,40,Female,23,001,2021_Mar_10_1809,cal_abstract,2020.2.4,60.00412825957584,
,Fix2,stimuli/Wealth/33.jpg,right,,,,,,,,,,,0,159,159,159,,,,,,,,,,,,,,,,,,,,,,,,,,,,,,,,,,,611.7645415998995,None,611.7645415998995,None,right,1,1.1633111997507513,611.7645415998995,None,1,612.9558784998953,None,,,,,,,,,,,,,,,,,,,,,,,,,,,,,,,,,,,,,,,,,,,,,,,,,,,,,,,,,,,,,,,,,,,40,Female,23,001,2021_Mar_10_1809,cal_abstract,2020.2.4,60.00412825957584,
,Cond,stimuli/Healthy/60.jpg,left,,,,,,,,,,,0,160,160,160,,,,,,,,,,,,,,,,,,,,,,,,,,,,,,,,,,,613.7607685998082,None,613.7607685998082,None,left,1,1.0396644999273121,613.7607685998082,None,1,614.818895699922,None,,,,,,,,,,,,,,,,,,,,,,,,,,,,,,,,,,,,,,,,,,,,,,,,,,,,,,,,,,,,,,,,,,,40,Female,23,001,2021_Mar_10_1809,cal_abstract,2020.2.4,60.00412825957584,
,Cond,stimuli/Healthy/47.jpg,right,,,,,,,,,,,0,161,161,161,,,,,,,,,,,,,,,,,,,,,,,,,,,,,,,,,,,615.6216150997207,None,615.6216150997207,None,right,1,0.7412951001897454,615.6216150997207,None,1,616.3836840996519,None,,,,,,,,,,,,,,,,,,,,,,,,,,,,,,,,,,,,,,,,,,,,,,,,,,,,,,,,,,,,,,,,,,,40,Female,23,001,2021_Mar_10_1809,cal_abstract,2020.2.4,60.00412825957584,
,Cond,stimuli/Healthy/67.jpg,left,,,,,,,,,,,0,162,162,162,,,,,,,,,,,,,,,,,,,,,,,,,,,,,,,,,,,617.1724117998965,None,617.1724117998965,None,left,1,0.7151925000362098,617.1724117998965,None,1,617.9166109999642,None,,,,,,,,,,,,,,,,,,,,,,,,,,,,,,,,,,,,,,,,,,,,,,,,,,,,,,,,,,,,,,,,,,,40,Female,23,001,2021_Mar_10_1809,cal_abstract,2020.2.4,60.00412825957584,
,Cond,stimuli/Healthy/57.jpg,right,,,,,,,,,,,0,163,163,163,,,,,,,,,,,,,,,,,,,,,,,,,,,,,,,,,,,618.7119828998111,None,618.7119828998111,None,right,1,0.9909677002578974,618.7119828998111,None,1,619.7313230996951,None,,,,,,,,,,,,,,,,,,,,,,,,,,,,,,,,,,,,,,,,,,,,,,,,,,,,,,,,,,,,,,,,,,,40,Female,23,001,2021_Mar_10_1809,cal_abstract,2020.2.4,60.00412825957584,
,Cond,stimuli/Healthy/7.jpg,left,,,,,,,,,,,0,164,164,164,,,,,,,,,,,,,,,,,,,,,,,,,,,,,,,,,,,620.5132364998572,None,620.5132364998572,None,left,1,0.7318694000132382,620.5132364998572,None,1,621.2634916999377,None,,,,,,,,,,,,,,,,,,,,,,,,,,,,,,,,,,,,,,,,,,,,,,,,,,,,,,,,,,,,,,,,,,,40,Female,23,001,2021_Mar_10_1809,cal_abstract,2020.2.4,60.00412825957584,
,Fix2,stimuli/Wealth/49.jpg,right,,,,,,,,,,,0,165,165,165,,,,,,,,,,,,,,,,,,,,,,,,,,,,,,,,,,,622.0641365000047,None,622.0641365000047,None,right,1,0.730549399740994,622.0641365000047,None,1,622.8122248998843,None,,,,,,,,,,,,,,,,,,,,,,,,,,,,,,,,,,,,,,,,,,,,,,,,,,,,,,,,,,,,,,,,,,,40,Female,23,001,2021_Mar_10_1809,cal_abstract,2020.2.4,60.00412825957584,
,Fix1,stimuli/Sad/41.jpg,left,,,,,,,,,,,0,166,166,166,,,,,,,,,,,,,,,,,,,,,,,,,,,,,,,,,,,623.605230699759,None,623.605230699759,None,left,1,0.8156297001987696,623.605230699759,None,1,624.4595502000302,None,,,,,,,,,,,,,,,,,,,,,,,,,,,,,,,,,,,,,,,,,,,,,,,,,,,,,,,,,,,,,,,,,,,40,Female,23,001,2021_Mar_10_1809,cal_abstract,2020.2.4,60.00412825957584,
,Fix1,stimuli/Sad/46.jpg,left,,,,,,,,,,,0,167,167,167,,,,,,,,,,,,,,,,,,,,,,,,,,,,,,,,,,,625.2506649997085,None,625.2506649997085,None,left,1,0.869431299623102,625.2506649997085,None,1,626.1425508996472,None,,,,,,,,,,,,,,,,,,,,,,,,,,,,,,,,,,,,,,,,,,,,,,,,,,,,,,,,,,,,,,,,,,,40,Female,23,001,2021_Mar_10_1809,cal_abstract,2020.2.4,60.00412825957584,
,Fix2,stimuli/Wealth/22.jpg,right,,,,,,,,,,,0,168,168,168,,,,,,,,,,,,,,,,,,,,,,,,,,,,,,,,,,,626.9491888997145,None,626.9491888997145,None,right,1,0.6992521001957357,626.9491888997145,None,1,627.6742689996026,None,,,,,,,,,,,,,,,,,,,,,,,,,,,,,,,,,,,,,,,,,,,,,,,,,,,,,,,,,,,,,,,,,,,40,Female,23,001,2021_Mar_10_1809,cal_abstract,2020.2.4,60.00412825957584,
,Cond,stimuli/Healthy/19.jpg,left,,,,,,,,,,,0,169,169,169,,,,,,,,,,,,,,,,,,,,,,,,,,,,,,,,,,,628.45593070006,None,628.45593070006,None,right,0,0.6711974004283547,628.45593070006,None,0,629.158693399746,None,,,,,,,,,,,,,,,,,,,,,,,,,,,,,,,,,,,,,,,,,,,,,,,,,,,,,,,,,,,,,,,,,,,40,Female,23,001,2021_Mar_10_1809,cal_abstract,2020.2.4,60.00412825957584,
,Fix1,stimuli/Sad/30.jpg,left,,,,,,,,,,,0,170,170,170,,,,,,,,,,,,,,,,,,,,,,,,,,,,,,,,,,,629.9621659996919,None,629.9621659996919,None,left,1,0.749659700319171,629.9621659996919,None,1,630.7403233000077,None,,,,,,,,,,,,,,,,,,,,,,,,,,,,,,,,,,,,,,,,,,,,,,,,,,,,,,,,,,,,,,,,,,,40,Female,23,001,2021_Mar_10_1809,cal_abstract,2020.2.4,60.00412825957584,
,Cond,stimuli/Healthy/44.jpg,right,,,,,,,,,,,0,171,171,171,,,,,,,,,,,,,,,,,,,,,,,,,,,,,,,,,,,631.5398794999346,None,631.5398794999346,None,right,1,0.5499347997829318,631.5398794999346,None,1,632.1084874998778,None,,,,,,,,,,,,,,,,,,,,,,,,,,,,,,,,,,,,,,,,,,,,,,,,,,,,,,,,,,,,,,,,,,,40,Female,23,001,2021_Mar_10_1809,cal_abstract,2020.2.4,60.00412825957584,
,Fix2,stimuli/Wealth/15.jpg,right,,,,,,,,,,,0,172,172,172,,,,,,,,,,,,,,,,,,,,,,,,,,,,,,,,,,,632.8959146998823,None,632.8959146998823,None,right,1,0.646928200032562,632.8959146998823,None,1,633.5695702997036,None,,,,,,,,,,,,,,,,,,,,,,,,,,,,,,,,,,,,,,,,,,,,,,,,,,,,,,,,,,,,,,,,,,,40,Female,23,001,2021_Mar_10_1809,cal_abstract,2020.2.4,60.00412825957584,
,Fix1,stimuli/Sad/49.jpg,left,,,,,,,,,,,0,173,173,173,,,,,,,,,,,,,,,,,,,,,,,,,,,,,,,,,,,634.3540761000477,None,634.3540761000477,None,left,1,1.0752452998422086,634.3540761000477,None,1,635.4510649000295,None,,,,,,,,,,,,,,,,,,,,,,,,,,,,,,,,,,,,,,,,,,,,,,,,,,,,,,,,,,,,,,,,,,,40,Female,23,001,2021_Mar_10_1809,cal_abstract,2020.2.4,60.00412825957584,
,Fix1,stimuli/Sad/7.jpg,left,,,,,,,,,,,0,174,174,174,,,,,,,,,,,,,,,,,,,,,,,,,,,,,,,,,,,636.2207511998713,None,636.2207511998713,None,left,1,0.7796122999861836,636.2207511998713,None,1,637.0197683000006,None,,,,,,,,,,,,,,,,,,,,,,,,,,,,,,,,,,,,,,,,,,,,,,,,,,,,,,,,,,,,,,,,,,,40,Female,23,001,2021_Mar_10_1809,cal_abstract,2020.2.4,60.00412825957584,
,Cond,stimuli/Healthy/69.jpg,right,,,,,,,,,,,0,175,175,175,,,,,,,,,,,,,,,,,,,,,,,,,,,,,,,,,,,637.8200162998401,None,637.8200162998401,None,left,0,1.1030236999504268,637.8200162998401,None,0,638.9513326999731,None,,,,,,,,,,,,,,,,,,,,,,,,,,,,,,,,,,,,,,,,,,,,,,,,,,,,,,,,,,,,,,,,,,,40,Female,23,001,2021_Mar_10_1809,cal_abstract,2020.2.4,60.00412825957584,
,Fix1,stimuli/Sad/54.jpg,left,,,,,,,,,,,0,176,176,176,,,,,,,,,,,,,,,,,,,,,,,,,,,,,,,,,,,639.745931699872,None,639.745931699872,None,left,1,0.8216459001414478,639.745931699872,None,1,640.6074506998993,None,,,,,,,,,,,,,,,,,,,,,,,,,,,,,,,,,,,,,,,,,,,,,,,,,,,,,,,,,,,,,,,,,,,40,Female,23,001,2021_Mar_10_1809,cal_abstract,2020.2.4,60.00412825957584,
,Cond,stimuli/Healthy/4.jpg,right,,,,,,,,,,,0,177,177,177,,,,,,,,,,,,,,,,,,,,,,,,,,,,,,,,,,,641.3937149997801,None,641.3937149997801,None,left,0,0.7180495001375675,641.3937149997801,None,0,642.1384605998173,None,,,,,,,,,,,,,,,,,,,,,,,,,,,,,,,,,,,,,,,,,,,,,,,,,,,,,,,,,,,,,,,,,,,40,Female,23,001,2021_Mar_10_1809,cal_abstract,2020.2.4,60.00412825957584,
,Cond,stimuli/Healthy/25.jpg,left,,,,,,,,,,,0,178,178,178,,,,,,,,,,,,,,,,,,,,,,,,,,,,,,,,,,,642.9653963996097,None,642.9653963996097,None,left,1,1.0779643999412656,642.9653963996097,None,1,644.071672799997,None,,,,,,,,,,,,,,,,,,,,,,,,,,,,,,,,,,,,,,,,,,,,,,,,,,,,,,,,,,,,,,,,,,,40,Female,23,001,2021_Mar_10_1809,cal_abstract,2020.2.4,60.00412825957584,
,Fix2,stimuli/Wealth/52.jpg,right,,,,,,,,,,,0,179,179,179,,,,,,,,,,,,,,,,,,,,,,,,,,,,,,,,,,,644.8663514000364,None,644.8663514000364,None,right,1,0.8415726996026933,644.8663514000364,None,1,645.7261600997299,None,,,,,,,,,,,,,,,,,,,,,,,,,,,,,,,,,,,,,,,,,,,,,,,,,,,,,,,,,,,,,,,,,,,40,Female,23,001,2021_Mar_10_1809,cal_abstract,2020.2.4,60.00412825957584,
,,,,,,,,,,,,,,,,,,,,,,,,,,,,,,,,,,,,,,,,,,,,,,,,,,,,,,,,,,,,,,,,646.476143299602,None,c,8.794495500158519,646.476143299602,None,,,,,,,,,,,,,,,,,,,,,,,,,,,,,,,,,,,,,,,,,,,,,,,,,,,,,,,,,,,,,40,Female,23,001,2021_Mar_10_1809,cal_abstract,2020.2.4,60.00412825957584,
,,,,,,,,,,,,,,,,,,,,,,,,,,,,,,,,,,,,,,,,,,,,,,,,,,,,,,,,,,,,,,,,,,,,,,655.288099899888,None,655.288099899888,None,return,7.764766599982977,655.288099899888,None,,,,,,,,,,,,,,,,,,,,,,,,,,,,,,,,,,,,,,,,,,,,,,,,,,,,,40,Female,23,001,2021_Mar_10_1809,cal_abstract,2020.2.4,60.00412825957584,
,,,,,,,,,,,,,,,,,,,,,,,,,,,,,,,,,,,,,,,,,,,,,,,,,,,,,,,,,,,,,,,,,,,,,,,,,,,,,,663.0780865000561,None,663.0780865000561,None,s,1.72709839977324,663.0780865000561,None,,,,,,,,,,,,,,,,,,,,,,,,,,,,,,,,,,,,,,,,,,,,,40,Female,23,001,2021_Mar_10_1809,cal_abstract,2020.2.4,60.00412825957584,
,,,,Fix2,stimuli/Small/14.jpg,left,,,,,,,,,,,,0,0,0,0,,,,,,,,,,,,,,,,,,,,,,,,,,,,,,,,,,,,,,,,0,,,,,,,,,,,,,,,,,,,,,,,,,664.9148303000256,None,664.9148303000256,None,right,0,2.634178899694234,664.9148303000256,None,667.5900067999028,None,,,,,,,,,,,,,,,,,,,,,,,,,,,,,,,,,,40,Female,23,001,2021_Mar_10_1809,cal_abstract,2020.2.4,60.00412825957584,
,,,,Fix1,stimuli/Soft/17.jpg,right,,,,,,,,,,,,0,1,1,1,,,,,,,,,,,,,,,,,,,,,,,,,,,,,,,,,,,,,,,,1,,,,,,,,,,,,,,,,,,,,,,,,,668.3934783996083,None,668.3934783996083,None,right,1,3.8125969003885984,668.3934783996083,None,672.2413813997991,None,,,,,,,,,,,,,,,,,,,,,,,,,,,,,,,,,,40,Female,23,001,2021_Mar_10_1809,cal_abstract,2020.2.4,60.00412825957584,
,,,,Fix2,stimuli/Small/12.jpg,left,,,,,,,,,,,,0,2,2,2,,,,,,,,,,,,,,,,,,,,,,,,,,,,,,,,,,,,,,,,1,,,,,,,,,,,,,,,,,,,,,,,,,673.0449522999115,None,673.0449522999115,None,left,1,0.9355430002324283,673.0449522999115,None,674.003231599927,None,,,,,,,,,,,,,,,,,,,,,,,,,,,,,,,,,,40,Female,23,001,2021_Mar_10_1809,cal_abstract,2020.2.4,60.00412825957584,
,,,,Fix2,stimuli/Small/3.jpg,left,,,,,,,,,,,,0,3,3,3,,,,,,,,,,,,,,,,,,,,,,,,,,,,,,,,,,,,,,,,1,,,,,,,,,,,,,,,,,,,,,,,,,674.7940010996535,None,674.7940010996535,None,left,1,1.2052835999056697,674.7940010996535,None,676.0260660997592,None,,,,,,,,,,,,,,,,,,,,,,,,,,,,,,,,,,40,Female,23,001,2021_Mar_10_1809,cal_abstract,2020.2.4,60.00412825957584,
,,,,Cond,stimuli/School/24.jpg,right,,,,,,,,,,,,0,4,4,4,,,,,,,,,,,,,,,,,,,,,,,,,,,,,,,,,,,,,,,,1,,,,,,,,,,,,,,,,,,,,,,,,,676.8400314999744,None,676.8400314999744,None,right,1,2.9506787001155317,676.8400314999744,None,679.8177205999382,None,,,,,,,,,,,,,,,,,,,,,,,,,,,,,,,,,,40,Female,23,001,2021_Mar_10_1809,cal_abstract,2020.2.4,60.00412825957584,
,,,,Fix2,stimuli/Small/16.jpg,left,,,,,,,,,,,,0,5,5,5,,,,,,,,,,,,,,,,,,,,,,,,,,,,,,,,,,,,,,,,1,,,,,,,,,,,,,,,,,,,,,,,,,680.6274856999516,None,680.6274856999516,None,left,1,4.527681600302458,680.6274856999516,None,685.1768775000237,None,,,,,,,,,,,,,,,,,,,,,,,,,,,,,,,,,,40,Female,23,001,2021_Mar_10_1809,cal_abstract,2020.2.4,60.00412825957584,
,,,,Fix1,stimuli/Soft/2.jpg,right,,,,,,,,,,,,0,6,6,6,,,,,,,,,,,,,,,,,,,,,,,,,,,,,,,,,,,,,,,,1,,,,,,,,,,,,,,,,,,,,,,,,,685.973711699713,None,685.973711699713,None,right,1,9.612765999976546,685.973711699713,None,695.6025823997334,None,,,,,,,,,,,,,,,,,,,,,,,,,,,,,,,,,,40,Female,23,001,2021_Mar_10_1809,cal_abstract,2020.2.4,60.00412825957584,
,,,,Fix2,stimuli/Small/9.jpg,left,,,,,,,,,,,,0,7,7,7,,,,,,,,,,,,,,,,,,,,,,,,,,,,,,,,,,,,,,,,1,,,,,,,,,,,,,,,,,,,,,,,,,696.39854319999,None,696.39854319999,None,left,1,0.9152969997376204,696.39854319999,None,697.3339017997496,None,,,,,,,,,,,,,,,,,,,,,,,,,,,,,,,,,,40,Female,23,001,2021_Mar_10_1809,cal_abstract,2020.2.4,60.00412825957584,
,,,,Fix1,stimuli/Soft/48.jpg,right,,,,,,,,,,,,0,8,8,8,,,,,,,,,,,,,,,,,,,,,,,,,,,,,,,,,,,,,,,,1,,,,,,,,,,,,,,,,,,,,,,,,,698.1215404998511,None,698.1215404998511,None,right,1,0.985090599860996,698.1215404998511,None,699.1327054998837,None,,,,,,,,,,,,,,,,,,,,,,,,,,,,,,,,,,40,Female,23,001,2021_Mar_10_1809,cal_abstract,2020.2.4,60.00412825957584,
,,,,Fix2,stimuli/Small/49.jpg,left,,,,,,,,,,,,0,9,9,9,,,,,,,,,,,,,,,,,,,,,,,,,,,,,,,,,,,,,,,,1,,,,,,,,,,,,,,,,,,,,,,,,,699.9336575996131,None,699.9336575996131,None,left,1,0.7521226000972092,699.9336575996131,None,700.714972899761,None,,,,,,,,,,,,,,,,,,,,,,,,,,,,,,,,,,40,Female,23,001,2021_Mar_10_1809,cal_abstract,2020.2.4,60.00412825957584,
,,,,Fix2,stimuli/Small/23.jpg,left,,,,,,,,,,,,0,10,10,10,,,,,,,,,,,,,,,,,,,,,,,,,,,,,,,,,,,,,,,,1,,,,,,,,,,,,,,,,,,,,,,,,,701.5237304996699,None,701.5237304996699,None,left,1,1.458352199755609,701.5237304996699,None,703.0130220996216,None,,,,,,,,,,,,,,,,,,,,,,,,,,,,,,,,,,40,Female,23,001,2021_Mar_10_1809,cal_abstract,2020.2.4,60.00412825957584,
,,,,Fix1,stimuli/Soft/41.jpg,right,,,,,,,,,,,,0,11,11,11,,,,,,,,,,,,,,,,,,,,,,,,,,,,,,,,,,,,,,,,1,,,,,,,,,,,,,,,,,,,,,,,,,703.8082485999912,None,703.8082485999912,None,right,1,1.3131395000964403,703.8082485999912,None,705.144850099925,None,,,,,,,,,,,,,,,,,,,,,,,,,,,,,,,,,,40,Female,23,001,2021_Mar_10_1809,cal_abstract,2020.2.4,60.00412825957584,
,,,,Fix2,stimuli/Small/44.jpg,left,,,,,,,,,,,,0,12,12,12,,,,,,,,,,,,,,,,,,,,,,,,,,,,,,,,,,,,,,,,1,,,,,,,,,,,,,,,,,,,,,,,,,705.9175191000104,None,705.9175191000104,None,left,1,0.9948468999937177,705.9175191000104,None,706.9429307999089,None,,,,,,,,,,,,,,,,,,,,,,,,,,,,,,,,,,40,Female,23,001,2021_Mar_10_1809,cal_abstract,2020.2.4,60.00412825957584,
,,,,Fix2,stimuli/Small/39.jpg,left,,,,,,,,,,,,0,13,13,13,,,,,,,,,,,,,,,,,,,,,,,,,,,,,,,,,,,,,,,,1,,,,,,,,,,,,,,,,,,,,,,,,,707.7338884999044,None,707.7338884999044,None,left,1,1.3830789998173714,707.7338884999044,None,709.1435916996561,None,,,,,,,,,,,,,,,,,,,,,,,,,,,,,,,,,,40,Female,23,001,2021_Mar_10_1809,cal_abstract,2020.2.4,60.00412825957584,
,,,,Fix1,stimuli/Soft/55.jpg,right,,,,,,,,,,,,0,14,14,14,,,,,,,,,,,,,,,,,,,,,,,,,,,,,,,,,,,,,,,,1,,,,,,,,,,,,,,,,,,,,,,,,,709.9466258999892,None,709.9466258999892,None,right,1,0.7775402003899217,709.9466258999892,None,710.7430515000597,None,,,,,,,,,,,,,,,,,,,,,,,,,,,,,,,,,,40,Female,23,001,2021_Mar_10_1809,cal_abstract,2020.2.4,60.00412825957584,
,,,,Cond,stimuli/School/18.jpg,left,,,,,,,,,,,,0,15,15,15,,,,,,,,,,,,,,,,,,,,,,,,,,,,,,,,,,,,,,,,1,,,,,,,,,,,,,,,,,,,,,,,,,711.5350848999806,None,711.5350848999806,None,left,1,1.876212100032717,711.5350848999806,None,713.44151220005,None,,,,,,,,,,,,,,,,,,,,,,,,,,,,,,,,,,40,Female,23,001,2021_Mar_10_1809,cal_abstract,2020.2.4,60.00412825957584,
,,,,Cond,stimuli/School/40.jpg,right,,,,,,,,,,,,0,16,16,16,,,,,,,,,,,,,,,,,,,,,,,,,,,,,,,,,,,,,,,,1,,,,,,,,,,,,,,,,,,,,,,,,,714.2499870997854,None,714.2499870997854,None,right,1,4.074623300228268,714.2499870997854,None,718.3525749999098,None,,,,,,,,,,,,,,,,,,,,,,,,,,,,,,,,,,40,Female,23,001,2021_Mar_10_1809,cal_abstract,2020.2.4,60.00412825957584,
,,,,Fix1,stimuli/Soft/19.jpg,right,,,,,,,,,,,,0,17,17,17,,,,,,,,,,,,,,,,,,,,,,,,,,,,,,,,,,,,,,,,1,,,,,,,,,,,,,,,,,,,,,,,,,719.1809597997926,None,719.1809597997926,None,right,1,1.0992363998666406,719.1809597997926,None,720.2987203998491,None,,,,,,,,,,,,,,,,,,,,,,,,,,,,,,,,,,40,Female,23,001,2021_Mar_10_1809,cal_abstract,2020.2.4,60.00412825957584,
,,,,Cond,stimuli/School/55.jpg,left,,,,,,,,,,,,0,18,18,18,,,,,,,,,,,,,,,,,,,,,,,,,,,,,,,,,,,,,,,,1,,,,,,,,,,,,,,,,,,,,,,,,,721.0806052000262,None,721.0806052000262,None,left,1,1.5126412003301084,721.0806052000262,None,722.6134357997216,None,,,,,,,,,,,,,,,,,,,,,,,,,,,,,,,,,,40,Female,23,001,2021_Mar_10_1809,cal_abstract,2020.2.4,60.00412825957584,
,,,,Fix2,stimuli/Small/47.jpg,left,,,,,,,,,,,,0,19,19,19,,,,,,,,,,,,,,,,,,,,,,,,,,,,,,,,,,,,,,,,1,,,,,,,,,,,,,,,,,,,,,,,,,723.4041570997797,None,723.4041570997797,None,left,1,7.061726199928671,723.4041570997797,None,730.4900143998675,None,,,,,,,,,,,,,,,,,,,,,,,,,,,,,,,,,,40,Female,23,001,2021_Mar_10_1809,cal_abstract,2020.2.4,60.00412825957584,
,,,,Fix2,stimuli/Small/32.jpg,left,,,,,,,,,,,,0,20,20,20,,,,,,,,,,,,,,,,,,,,,,,,,,,,,,,,,,,,,,,,1,,,,,,,,,,,,,,,,,,,,,,,,,731.2758970996365,None,731.2758970996365,None,left,1,1.0022812001407146,731.2758970996365,None,732.304962199647,None,,,,,,,,,,,,,,,,,,,,,,,,,,,,,,,,,,40,Female,23,001,2021_Mar_10_1809,cal_abstract,2020.2.4,60.00412825957584,
,,,,Fix2,stimuli/Small/1.jpg,left,,,,,,,,,,,,0,21,21,21,,,,,,,,,,,,,,,,,,,,,,,,,,,,,,,,,,,,,,,,1,,,,,,,,,,,,,,,,,,,,,,,,,733.0846086996607,None,733.0846086996607,None,left,1,0.8879110002890229,733.0846086996607,None,734.003862099722,None,,,,,,,,,,,,,,,,,,,,,,,,,,,,,,,,,,40,Female,23,001,2021_Mar_10_1809,cal_abstract,2020.2.4,60.00412825957584,
,,,,Fix1,stimuli/Soft/51.jpg,right,,,,,,,,,,,,0,22,22,22,,,,,,,,,,,,,,,,,,,,,,,,,,,,,,,,,,,,,,,,1,,,,,,,,,,,,,,,,,,,,,,,,,734.7949930997565,None,734.7949930997565,None,right,1,0.7746860999614,734.7949930997565,None,735.5850808997639,None,,,,,,,,,,,,,,,,,,,,,,,,,,,,,,,,,,40,Female,23,001,2021_Mar_10_1809,cal_abstract,2020.2.4,60.00412825957584,
,,,,Cond,stimuli/School/43.jpg,left,,,,,,,,,,,,0,23,23,23,,,,,,,,,,,,,,,,,,,,,,,,,,,,,,,,,,,,,,,,1,,,,,,,,,,,,,,,,,,,,,,,,,736.3429463999346,None,736.3429463999346,None,left,1,1.3525534998625517,736.3429463999346,None,737.7175528998487,None,,,,,,,,,,,,,,,,,,,,,,,,,,,,,,,,,,40,Female,23,001,2021_Mar_10_1809,cal_abstract,2020.2.4,60.00412825957584,
,,,,Fix1,stimuli/Soft/3.jpg,right,,,,,,,,,,,,0,24,24,24,,,,,,,,,,,,,,,,,,,,,,,,,,,,,,,,,,,,,,,,1,,,,,,,,,,,,,,,,,,,,,,,,,738.5143893999048,None,738.5143893999048,None,right,1,1.1936278999783099,738.5143893999048,None,739.732425800059,None,,,,,,,,,,,,,,,,,,,,,,,,,,,,,,,,,,40,Female,23,001,2021_Mar_10_1809,cal_abstract,2020.2.4,60.00412825957584,
,,,,Fix2,stimuli/Small/21.jpg,left,,,,,,,,,,,,0,25,25,25,,,,,,,,,,,,,,,,,,,,,,,,,,,,,,,,,,,,,,,,1,,,,,,,,,,,,,,,,,,,,,,,,,740.5243661999702,None,740.5243661999702,None,left,1,1.0231157997623086,740.5243661999702,None,741.5656760996208,None,,,,,,,,,,,,,,,,,,,,,,,,,,,,,,,,,,40,Female,23,001,2021_Mar_10_1809,cal_abstract,2020.2.4,60.00412825957584,
,,,,Fix1,stimuli/Soft/24.jpg,right,,,,,,,,,,,,0,26,26,26,,,,,,,,,,,,,,,,,,,,,,,,,,,,,,,,,,,,,,,,1,,,,,,,,,,,,,,,,,,,,,,,,,742.3697045999579,None,742.3697045999579,None,right,1,1.7459474001079798,742.3697045999579,None,744.1459262999706,None,,,,,,,,,,,,,,,,,,,,,,,,,,,,,,,,,,40,Female,23,001,2021_Mar_10_1809,cal_abstract,2020.2.4,60.00412825957584,
,,,,Fix2,stimuli/Small/45.jpg,left,,,,,,,,,,,,0,27,27,27,,,,,,,,,,,,,,,,,,,,,,,,,,,,,,,,,,,,,,,,1,,,,,,,,,,,,,,,,,,,,,,,,,744.9398332997225,None,744.9398332997225,None,left,1,1.110974300187081,744.9398332997225,None,746.0774368997663,None,,,,,,,,,,,,,,,,,,,,,,,,,,,,,,,,,,40,Female,23,001,2021_Mar_10_1809,cal_abstract,2020.2.4,60.00412825957584,
,,,,Fix2,stimuli/Small/52.jpg,left,,,,,,,,,,,,0,28,28,28,,,,,,,,,,,,,,,,,,,,,,,,,,,,,,,,,,,,,,,,1,,,,,,,,,,,,,,,,,,,,,,,,,746.8528028996661,None,746.8528028996661,None,left,1,0.8636235999874771,746.8528028996661,None,747.7448772997595,None,,,,,,,,,,,,,,,,,,,,,,,,,,,,,,,,,,40,Female,23,001,2021_Mar_10_1809,cal_abstract,2020.2.4,60.00412825957584,
,,,,Fix2,stimuli/Small/22.jpg,left,,,,,,,,,,,,0,29,29,29,,,,,,,,,,,,,,,,,,,,,,,,,,,,,,,,,,,,,,,,1,,,,,,,,,,,,,,,,,,,,,,,,,748.5534580997191,None,748.5534580997191,None,left,1,1.087533500045538,748.5534580997191,None,749.658575899899,None,,,,,,,,,,,,,,,,,,,,,,,,,,,,,,,,,,40,Female,23,001,2021_Mar_10_1809,cal_abstract,2020.2.4,60.00412825957584,
,,,,Cond,stimuli/School/35.jpg,right,,,,,,,,,,,,0,30,30,30,,,,,,,,,,,,,,,,,,,,,,,,,,,,,,,,,,,,,,,,1,,,,,,,,,,,,,,,,,,,,,,,,,750.4723932999186,None,750.4723932999186,None,right,1,1.1293016001582146,750.4723932999186,None,751.6230094996281,None,,,,,,,,,,,,,,,,,,,,,,,,,,,,,,,,,,40,Female,23,001,2021_Mar_10_1809,cal_abstract,2020.2.4,60.00412825957584,
,,,,Cond,stimuli/School/45.jpg,left,,,,,,,,,,,,0,31,31,31,,,,,,,,,,,,,,,,,,,,,,,,,,,,,,,,,,,,,,,,1,,,,,,,,,,,,,,,,,,,,,,,,,752.4025822998956,None,752.4025822998956,None,left,1,1.0258201002143323,752.4025822998956,None,753.4553986997344,None,,,,,,,,,,,,,,,,,,,,,,,,,,,,,,,,,,40,Female,23,001,2021_Mar_10_1809,cal_abstract,2020.2.4,60.00412825957584,
,,,,Fix2,stimuli/Small/28.jpg,left,,,,,,,,,,,,0,32,32,32,,,,,,,,,,,,,,,,,,,,,,,,,,,,,,,,,,,,,,,,1,,,,,,,,,,,,,,,,,,,,,,,,,754.2665288997814,None,754.2665288997814,None,left,1,1.031954700127244,754.2665288997814,None,755.3249373999424,None,,,,,,,,,,,,,,,,,,,,,,,,,,,,,,,,,,40,Female,23,001,2021_Mar_10_1809,cal_abstract,2020.2.4,60.00412825957584,
,,,,Fix1,stimuli/Soft/6.jpg,right,,,,,,,,,,,,0,33,33,33,,,,,,,,,,,,,,,,,,,,,,,,,,,,,,,,,,,,,,,,1,,,,,,,,,,,,,,,,,,,,,,,,,756.1140908999369,None,756.1140908999369,None,right,1,1.1967558995820582,756.1140908999369,None,757.3349651000462,None,,,,,,,,,,,,,,,,,,,,,,,,,,,,,,,,,,40,Female,23,001,2021_Mar_10_1809,cal_abstract,2020.2.4,60.00412825957584,
,,,,Fix2,stimuli/Small/18.jpg,left,,,,,,,,,,,,0,34,34,34,,,,,,,,,,,,,,,,,,,,,,,,,,,,,,,,,,,,,,,,1,,,,,,,,,,,,,,,,,,,,,,,,,758.1089490996674,None,758.1089490996674,None,left,1,1.001153300050646,758.1089490996674,None,759.1328671998344,None,,,,,,,,,,,,,,,,,,,,,,,,,,,,,,,,,,40,Female,23,001,2021_Mar_10_1809,cal_abstract,2020.2.4,60.00412825957584,
,,,,Cond,stimuli/School/50.jpg,right,,,,,,,,,,,,0,35,35,35,,,,,,,,,,,,,,,,,,,,,,,,,,,,,,,,,,,,,,,,1,,,,,,,,,,,,,,,,,,,,,,,,,759.9247070997953,None,759.9247070997953,None,right,1,1.086132500320673,759.9247070997953,None,761.0324826999567,None,,,,,,,,,,,,,,,,,,,,,,,,,,,,,,,,,,40,Female,23,001,2021_Mar_10_1809,cal_abstract,2020.2.4,60.00412825957584,
,,,,Fix2,stimuli/Small/5.jpg,left,,,,,,,,,,,,0,36,36,36,,,,,,,,,,,,,,,,,,,,,,,,,,,,,,,,,,,,,,,,1,,,,,,,,,,,,,,,,,,,,,,,,,761.8359641996212,None,761.8359641996212,None,left,1,0.8768593999557197,761.8359641996212,None,762.7310205996037,None,,,,,,,,,,,,,,,,,,,,,,,,,,,,,,,,,,40,Female,23,001,2021_Mar_10_1809,cal_abstract,2020.2.4,60.00412825957584,
,,,,Cond,stimuli/School/10.jpg,right,,,,,,,,,,,,0,37,37,37,,,,,,,,,,,,,,,,,,,,,,,,,,,,,,,,,,,,,,,,0,,,,,,,,,,,,,,,,,,,,,,,,,763.5338860996999,None,763.5338860996999,None,left,0,0.8679919000715017,763.5338860996999,None,764.4329551998526,None,,,,,,,,,,,,,,,,,,,,,,,,,,,,,,,,,,40,Female,23,001,2021_Mar_10_1809,cal_abstract,2020.2.4,60.00412825957584,
,,,,Fix1,stimuli/Soft/21.jpg,right,,,,,,,,,,,,0,38,38,38,,,,,,,,,,,,,,,,,,,,,,,,,,,,,,,,,,,,,,,,1,,,,,,,,,,,,,,,,,,,,,,,,,765.2407801998779,None,765.2407801998779,None,right,1,0.9236268997192383,765.2407801998779,None,766.1965762996115,None,,,,,,,,,,,,,,,,,,,,,,,,,,,,,,,,,,40,Female,23,001,2021_Mar_10_1809,cal_abstract,2020.2.4,60.00412825957584,
,,,,Fix2,stimuli/Small/36.jpg,left,,,,,,,,,,,,0,39,39,39,,,,,,,,,,,,,,,,,,,,,,,,,,,,,,,,,,,,,,,,1,,,,,,,,,,,,,,,,,,,,,,,,,766.9912352999672,None,766.9912352999672,None,left,1,2.888011499773711,766.9912352999672,None,769.9098849999718,None,,,,,,,,,,,,,,,,,,,,,,,,,,,,,,,,,,40,Female,23,001,2021_Mar_10_1809,cal_abstract,2020.2.4,60.00412825957584,
,,,,Fix1,stimuli/Soft/28.jpg,right,,,,,,,,,,,,0,40,40,40,,,,,,,,,,,,,,,,,,,,,,,,,,,,,,,,,,,,,,,,1,,,,,,,,,,,,,,,,,,,,,,,,,770.7153064999729,None,770.7153064999729,None,right,1,0.8206306002102792,770.7153064999729,None,771.5564399999566,None,,,,,,,,,,,,,,,,,,,,,,,,,,,,,,,,,,40,Female,23,001,2021_Mar_10_1809,cal_abstract,2020.2.4,60.00412825957584,
,,,,Fix2,stimuli/Small/17.jpg,left,,,,,,,,,,,,0,41,41,41,,,,,,,,,,,,,,,,,,,,,,,,,,,,,,,,,,,,,,,,1,,,,,,,,,,,,,,,,,,,,,,,,,772.3584849997424,None,772.3584849997424,None,left,1,0.7507567000575364,772.3584849997424,None,773.1383376996964,None,,,,,,,,,,,,,,,,,,,,,,,,,,,,,,,,,,40,Female,23,001,2021_Mar_10_1809,cal_abstract,2020.2.4,60.00412825957584,
,,,,Cond,stimuli/School/1.jpg,right,,,,,,,,,,,,0,42,42,42,,,,,,,,,,,,,,,,,,,,,,,,,,,,,,,,,,,,,,,,0,,,,,,,,,,,,,,,,,,,,,,,,,773.9436593996361,None,773.9436593996361,None,left,0,2.3533302997238934,773.9436593996361,None,776.326537899673,None,,,,,,,,,,,,,,,,,,,,,,,,,,,,,,,,,,40,Female,23,001,2021_Mar_10_1809,cal_abstract,2020.2.4,60.00412825957584,
,,,,Fix2,stimuli/Small/31.JPG,left,,,,,,,,,,,,0,43,43,43,,,,,,,,,,,,,,,,,,,,,,,,,,,,,,,,,,,,,,,,1,,,,,,,,,,,,,,,,,,,,,,,,,777.1124224998057,None,777.1124224998057,None,left,1,0.8945249998942018,777.1124224998057,None,778.037173199933,None,,,,,,,,,,,,,,,,,,,,,,,,,,,,,,,,,,40,Female,23,001,2021_Mar_10_1809,cal_abstract,2020.2.4,60.00412825957584,
,,,,Cond,stimuli/School/14.jpg,right,,,,,,,,,,,,0,44,44,44,,,,,,,,,,,,,,,,,,,,,,,,,,,,,,,,,,,,,,,,1,,,,,,,,,,,,,,,,,,,,,,,,,778.8499293997884,None,778.8499293997884,None,right,1,1.1321918996982276,778.8499293997884,None,779.9997367998585,None,,,,,,,,,,,,,,,,,,,,,,,,,,,,,,,,,,40,Female,23,001,2021_Mar_10_1809,cal_abstract,2020.2.4,60.00412825957584,
,,,,Cond,stimuli/School/2.jpg,left,,,,,,,,,,,,0,45,45,45,,,,,,,,,,,,,,,,,,,,,,,,,,,,,,,,,,,,,,,,1,,,,,,,,,,,,,,,,,,,,,,,,,780.7843299997039,None,780.7843299997039,None,left,1,1.3537759999744594,780.7843299997039,None,782.1646658997051,None,,,,,,,,,,,,,,,,,,,,,,,,,,,,,,,,,,40,Female,23,001,2021_Mar_10_1809,cal_abstract,2020.2.4,60.00412825957584,
,,,,Fix1,stimuli/Soft/13.jpg,right,,,,,,,,,,,,0,46,46,46,,,,,,,,,,,,,,,,,,,,,,,,,,,,,,,,,,,,,,,,1,,,,,,,,,,,,,,,,,,,,,,,,,782.9595836000517,None,782.9595836000517,None,right,1,2.2533648000098765,782.9595836000517,None,785.2280504000373,None,,,,,,,,,,,,,,,,,,,,,,,,,,,,,,,,,,40,Female,23,001,2021_Mar_10_1809,cal_abstract,2020.2.4,60.00412825957584,
,,,,Cond,stimuli/School/23.jpg,left,,,,,,,,,,,,0,47,47,47,,,,,,,,,,,,,,,,,,,,,,,,,,,,,,,,,,,,,,,,1,,,,,,,,,,,,,,,,,,,,,,,,,786.0139973997138,None,786.0139973997138,None,left,1,2.270112399943173,786.0139973997138,None,788.3100339998491,None,,,,,,,,,,,,,,,,,,,,,,,,,,,,,,,,,,40,Female,23,001,2021_Mar_10_1809,cal_abstract,2020.2.4,60.00412825957584,
,,,,Fix1,stimuli/Soft/12.jpg,right,,,,,,,,,,,,0,48,48,48,,,,,,,,,,,,,,,,,,,,,,,,,,,,,,,,,,,,,,,,1,,,,,,,,,,,,,,,,,,,,,,,,,789.1017221999355,None,789.1017221999355,None,right,1,0.882054700050503,789.1017221999355,None,790.00858350005,None,,,,,,,,,,,,,,,,,,,,,,,,,,,,,,,,,,40,Female,23,001,2021_Mar_10_1809,cal_abstract,2020.2.4,60.00412825957584,
,,,,Fix1,stimuli/Soft/58.jpg,right,,,,,,,,,,,,0,49,49,49,,,,,,,,,,,,,,,,,,,,,,,,,,,,,,,,,,,,,,,,1,,,,,,,,,,,,,,,,,,,,,,,,,790.8371000997722,None,790.8371000997722,None,right,1,1.0017041000537574,790.8371000997722,None,791.8560679997317,None,,,,,,,,,,,,,,,,,,,,,,,,,,,,,,,,,,40,Female,23,001,2021_Mar_10_1809,cal_abstract,2020.2.4,60.00412825957584,
,,,,Fix2,stimuli/Small/40.jpg,left,,,,,,,,,,,,0,50,50,50,,,,,,,,,,,,,,,,,,,,,,,,,,,,,,,,,,,,,,,,0,,,,,,,,,,,,,,,,,,,,,,,,,792.6336594000459,None,792.6336594000459,None,right,0,1.5903904000297189,792.6336594000459,None,794.2567877997644,None,,,,,,,,,,,,,,,,,,,,,,,,,,,,,,,,,,40,Female,23,001,2021_Mar_10_1809,cal_abstract,2020.2.4,60.00412825957584,
,,,,Cond,stimuli/School/53.jpg,right,,,,,,,,,,,,0,51,51,51,,,,,,,,,,,,,,,,,,,,,,,,,,,,,,,,,,,,,,,,1,,,,,,,,,,,,,,,,,,,,,,,,,795.0448567997664,None,795.0448567997664,None,right,1,1.6451735002920032,795.0448567997664,None,796.7206700998358,None,,,,,,,,,,,,,,,,,,,,,,,,,,,,,,,,,,40,Female,23,001,2021_Mar_10_1809,cal_abstract,2020.2.4,60.00412825957584,
,,,,Cond,stimuli/School/29.jpg,left,,,,,,,,,,,,0,52,52,52,,,,,,,,,,,,,,,,,,,,,,,,,,,,,,,,,,,,,,,,1,,,,,,,,,,,,,,,,,,,,,,,,,797.5464976998046,None,797.5464976998046,None,left,1,1.3257323000580072,797.5464976998046,None,798.902241599746,None,,,,,,,,,,,,,,,,,,,,,,,,,,,,,,,,,,40,Female,23,001,2021_Mar_10_1809,cal_abstract,2020.2.4,60.00412825957584,
,,,,Cond,stimuli/School/31.jpg,right,,,,,,,,,,,,0,53,53,53,,,,,,,,,,,,,,,,,,,,,,,,,,,,,,,,,,,,,,,,1,,,,,,,,,,,,,,,,,,,,,,,,,799.7191216996871,None,799.7191216996871,None,right,1,0.7791582997888327,799.7191216996871,None,800.5185560998507,None,,,,,,,,,,,,,,,,,,,,,,,,,,,,,,,,,,40,Female,23,001,2021_Mar_10_1809,cal_abstract,2020.2.4,60.00412825957584,
,,,,Fix1,stimuli/Soft/18.jpg,right,,,,,,,,,,,,0,54,54,54,,,,,,,,,,,,,,,,,,,,,,,,,,,,,,,,,,,,,,,,1,,,,,,,,,,,,,,,,,,,,,,,,,801.3441154998727,None,801.3441154998727,None,right,1,1.2342589003965259,801.3441154998727,None,802.5978922997601,None,,,,,,,,,,,,,,,,,,,,,,,,,,,,,,,,,,40,Female,23,001,2021_Mar_10_1809,cal_abstract,2020.2.4,60.00412825957584,
,,,,Fix1,stimuli/Soft/7.jpg,right,,,,,,,,,,,,0,55,55,55,,,,,,,,,,,,,,,,,,,,,,,,,,,,,,,,,,,,,,,,1,,,,,,,,,,,,,,,,,,,,,,,,,803.3964120000601,None,803.3964120000601,None,right,1,1.039813400246203,803.3964120000601,None,804.4655389999971,None,,,,,,,,,,,,,,,,,,,,,,,,,,,,,,,,,,40,Female,23,001,2021_Mar_10_1809,cal_abstract,2020.2.4,60.00412825957584,
,,,,Fix2,stimuli/Small/56.jpg,left,,,,,,,,,,,,0,56,56,56,,,,,,,,,,,,,,,,,,,,,,,,,,,,,,,,,,,,,,,,1,,,,,,,,,,,,,,,,,,,,,,,,,805.2349576000124,None,805.2349576000124,None,left,1,0.9001573999412358,805.2349576000124,None,806.1618666998111,None,,,,,,,,,,,,,,,,,,,,,,,,,,,,,,,,,,40,Female,23,001,2021_Mar_10_1809,cal_abstract,2020.2.4,60.00412825957584,
,,,,Fix1,stimuli/Soft/9.jpg,right,,,,,,,,,,,,0,57,57,57,,,,,,,,,,,,,,,,,,,,,,,,,,,,,,,,,,,,,,,,1,,,,,,,,,,,,,,,,,,,,,,,,,806.9696166999638,None,806.9696166999638,None,right,1,1.6596750998869538,806.9696166999638,None,808.6594241997227,None,,,,,,,,,,,,,,,,,,,,,,,,,,,,,,,,,,40,Female,23,001,2021_Mar_10_1809,cal_abstract,2020.2.4,60.00412825957584,
,,,,Fix2,stimuli/Small/59.jpg,left,,,,,,,,,,,,0,58,58,58,,,,,,,,,,,,,,,,,,,,,,,,,,,,,,,,,,,,,,,,1,,,,,,,,,,,,,,,,,,,,,,,,,809.4457545997575,None,809.4457545997575,None,left,1,0.9759023999795318,809.4457545997575,None,810.443530399818,None,,,,,,,,,,,,,,,,,,,,,,,,,,,,,,,,,,40,Female,23,001,2021_Mar_10_1809,cal_abstract,2020.2.4,60.00412825957584,
,,,,Fix1,stimuli/Soft/25.jpg,right,,,,,,,,,,,,0,59,59,59,,,,,,,,,,,,,,,,,,,,,,,,,,,,,,,,,,,,,,,,1,,,,,,,,,,,,,,,,,,,,,,,,,811.2643079999834,None,811.2643079999834,None,right,1,0.9110971000045538,811.2643079999834,None,812.2064242996275,None,,,,,,,,,,,,,,,,,,,,,,,,,,,,,,,,,,40,Female,23,001,2021_Mar_10_1809,cal_abstract,2020.2.4,60.00412825957584,
,,,,Cond,stimuli/School/44.jpg,left,,,,,,,,,,,,0,60,60,60,,,,,,,,,,,,,,,,,,,,,,,,,,,,,,,,,,,,,,,,1,,,,,,,,,,,,,,,,,,,,,,,,,813.0204212996177,None,813.0204212996177,None,left,1,1.0819971999153495,813.0204212996177,None,814.1243594996631,None,,,,,,,,,,,,,,,,,,,,,,,,,,,,,,,,,,40,Female,23,001,2021_Mar_10_1809,cal_abstract,2020.2.4,60.00412825957584,
,,,,Cond,stimuli/School/38.jpg,right,,,,,,,,,,,,0,61,61,61,,,,,,,,,,,,,,,,,,,,,,,,,,,,,,,,,,,,,,,,1,,,,,,,,,,,,,,,,,,,,,,,,,814.9090245999396,None,814.9090245999396,None,right,1,1.0537903001531959,814.9090245999396,None,815.9866239996627,None,,,,,,,,,,,,,,,,,,,,,,,,,,,,,,,,,,40,Female,23,001,2021_Mar_10_1809,cal_abstract,2020.2.4,60.00412825957584,
,,,,Cond,stimuli/School/42.jpg,left,,,,,,,,,,,,0,62,62,62,,,,,,,,,,,,,,,,,,,,,,,,,,,,,,,,,,,,,,,,1,,,,,,,,,,,,,,,,,,,,,,,,,816.7586709996685,None,816.7586709996685,None,left,1,0.7644453002139926,816.7586709996685,None,817.5519733000547,None,,,,,,,,,,,,,,,,,,,,,,,,,,,,,,,,,,40,Female,23,001,2021_Mar_10_1809,cal_abstract,2020.2.4,60.00412825957584,
,,,,Cond,stimuli/School/13.jpg,right,,,,,,,,,,,,0,63,63,63,,,,,,,,,,,,,,,,,,,,,,,,,,,,,,,,,,,,,,,,1,,,,,,,,,,,,,,,,,,,,,,,,,818.3445512996987,None,818.3445512996987,None,right,1,0.8689037002623081,818.3445512996987,None,819.2338515999727,None,,,,,,,,,,,,,,,,,,,,,,,,,,,,,,,,,,40,Female,23,001,2021_Mar_10_1809,cal_abstract,2020.2.4,60.00412825957584,
,,,,Fix2,stimuli/Small/11.jpg,left,,,,,,,,,,,,0,64,64,64,,,,,,,,,,,,,,,,,,,,,,,,,,,,,,,,,,,,,,,,1,,,,,,,,,,,,,,,,,,,,,,,,,820.0134918000549,None,820.0134918000549,None,left,1,1.039135199971497,820.0134918000549,None,821.0816385997459,None,,,,,,,,,,,,,,,,,,,,,,,,,,,,,,,,,,40,Female,23,001,2021_Mar_10_1809,cal_abstract,2020.2.4,60.00412825957584,
,,,,Fix2,stimuli/Small/10.jpg,left,,,,,,,,,,,,0,65,65,65,,,,,,,,,,,,,,,,,,,,,,,,,,,,,,,,,,,,,,,,1,,,,,,,,,,,,,,,,,,,,,,,,,821.8632594998926,None,821.8632594998926,None,left,1,0.7402921002358198,821.8632594998926,None,822.6310577997938,None,,,,,,,,,,,,,,,,,,,,,,,,,,,,,,,,,,40,Female,23,001,2021_Mar_10_1809,cal_abstract,2020.2.4,60.00412825957584,
,,,,Fix2,stimuli/Small/53.jpg,left,,,,,,,,,,,,0,66,66,66,,,,,,,,,,,,,,,,,,,,,,,,,,,,,,,,,,,,,,,,1,,,,,,,,,,,,,,,,,,,,,,,,,823.4290008996613,None,823.4290008996613,None,left,1,0.7782613998278975,823.4290008996613,None,824.2333594998345,None,,,,,,,,,,,,,,,,,,,,,,,,,,,,,,,,,,40,Female,23,001,2021_Mar_10_1809,cal_abstract,2020.2.4,60.00412825957584,
,,,,Cond,stimuli/School/36.jpg,right,,,,,,,,,,,,0,67,67,67,,,,,,,,,,,,,,,,,,,,,,,,,,,,,,,,,,,,,,,,1,,,,,,,,,,,,,,,,,,,,,,,,,825.0235659000464,None,825.0235659000464,None,right,1,1.197059900034219,825.0235659000464,None,826.244873999618,None,,,,,,,,,,,,,,,,,,,,,,,,,,,,,,,,,,40,Female,23,001,2021_Mar_10_1809,cal_abstract,2020.2.4,60.00412825957584,
,,,,Fix2,stimuli/Small/46.jpg,left,,,,,,,,,,,,0,68,68,68,,,,,,,,,,,,,,,,,,,,,,,,,,,,,,,,,,,,,,,,1,,,,,,,,,,,,,,,,,,,,,,,,,827.0289905997925,None,827.0289905997925,None,left,1,0.8666555001400411,827.0289905997925,None,827.9267630996183,None,,,,,,,,,,,,,,,,,,,,,,,,,,,,,,,,,,40,Female,23,001,2021_Mar_10_1809,cal_abstract,2020.2.4,60.00412825957584,
,,,,Fix1,stimuli/Soft/34.jpg,right,,,,,,,,,,,,0,69,69,69,,,,,,,,,,,,,,,,,,,,,,,,,,,,,,,,,,,,,,,,1,,,,,,,,,,,,,,,,,,,,,,,,,828.6980556999333,None,828.6980556999333,None,right,1,0.786355699878186,828.6980556999333,None,829.5117362998426,None,,,,,,,,,,,,,,,,,,,,,,,,,,,,,,,,,,40,Female,23,001,2021_Mar_10_1809,cal_abstract,2020.2.4,60.00412825957584,
,,,,Cond,stimuli/School/22.jpg,left,,,,,,,,,,,,0,70,70,70,,,,,,,,,,,,,,,,,,,,,,,,,,,,,,,,,,,,,,,,1,,,,,,,,,,,,,,,,,,,,,,,,,830.325290999841,None,830.325290999841,None,left,1,2.0372346001677215,830.325290999841,None,832.3897576997988,None,,,,,,,,,,,,,,,,,,,,,,,,,,,,,,,,,,40,Female,23,001,2021_Mar_10_1809,cal_abstract,2020.2.4,60.00412825957584,
,,,,Cond,stimuli/School/30.jpg,right,,,,,,,,,,,,0,71,71,71,,,,,,,,,,,,,,,,,,,,,,,,,,,,,,,,,,,,,,,,1,,,,,,,,,,,,,,,,,,,,,,,,,833.169313099701,None,833.169313099701,None,right,1,0.7195707997307181,833.169313099701,None,833.9090594998561,None,,,,,,,,,,,,,,,,,,,,,,,,,,,,,,,,,,40,Female,23,001,2021_Mar_10_1809,cal_abstract,2020.2.4,60.00412825957584,
,,,,Cond,stimuli/School/26.jpg,left,,,,,,,,,,,,0,72,72,72,,,,,,,,,,,,,,,,,,,,,,,,,,,,,,,,,,,,,,,,1,,,,,,,,,,,,,,,,,,,,,,,,,834.6951194996946,None,834.6951194996946,None,left,1,1.1042996998876333,834.6951194996946,None,835.8209179998375,None,,,,,,,,,,,,,,,,,,,,,,,,,,,,,,,,,,40,Female,23,001,2021_Mar_10_1809,cal_abstract,2020.2.4,60.00412825957584,
,,,,Cond,stimuli/School/9.jpg,right,,,,,,,,,,,,0,73,73,73,,,,,,,,,,,,,,,,,,,,,,,,,,,,,,,,,,,,,,,,1,,,,,,,,,,,,,,,,,,,,,,,,,836.6321100997739,None,836.6321100997739,None,right,1,1.500256999861449,836.6321100997739,None,838.1678291000426,None,,,,,,,,,,,,,,,,,,,,,,,,,,,,,,,,,,40,Female,23,001,2021_Mar_10_1809,cal_abstract,2020.2.4,60.00412825957584,
,,,,Fix2,stimuli/Small/54.jpg,left,,,,,,,,,,,,0,74,74,74,,,,,,,,,,,,,,,,,,,,,,,,,,,,,,,,,,,,,,,,1,,,,,,,,,,,,,,,,,,,,,,,,,838.9588118996471,None,838.9588118996471,None,left,1,0.9206789997406304,838.9588118996471,None,839.9007311998866,None,,,,,,,,,,,,,,,,,,,,,,,,,,,,,,,,,,40,Female,23,001,2021_Mar_10_1809,cal_abstract,2020.2.4,60.00412825957584,
,,,,Cond,stimuli/School/15.jpg,right,,,,,,,,,,,,0,75,75,75,,,,,,,,,,,,,,,,,,,,,,,,,,,,,,,,,,,,,,,,0,,,,,,,,,,,,,,,,,,,,,,,,,840.6818805998191,None,840.6818805998191,None,left,0,5.608736000023782,840.6818805998191,None,846.3235048996285,None,,,,,,,,,,,,,,,,,,,,,,,,,,,,,,,,,,40,Female,23,001,2021_Mar_10_1809,cal_abstract,2020.2.4,60.00412825957584,
,,,,Cond,stimuli/School/54.jpg,left,,,,,,,,,,,,0,76,76,76,,,,,,,,,,,,,,,,,,,,,,,,,,,,,,,,,,,,,,,,1,,,,,,,,,,,,,,,,,,,,,,,,,847.1170660997741,None,847.1170660997741,None,left,1,0.8711056001484394,847.1170660997741,None,848.0141622000374,None,,,,,,,,,,,,,,,,,,,,,,,,,,,,,,,,,,40,Female,23,001,2021_Mar_10_1809,cal_abstract,2020.2.4,60.00412825957584,
,,,,Cond,stimuli/School/58.jpg,right,,,,,,,,,,,,0,77,77,77,,,,,,,,,,,,,,,,,,,,,,,,,,,,,,,,,,,,,,,,1,,,,,,,,,,,,,,,,,,,,,,,,,848.8227540999651,None,848.8227540999651,None,right,1,0.9736059000715613,848.8227540999651,None,849.8288205000572,None,,,,,,,,,,,,,,,,,,,,,,,,,,,,,,,,,,40,Female,23,001,2021_Mar_10_1809,cal_abstract,2020.2.4,60.00412825957584,
,,,,Fix1,stimuli/Soft/5.jpg,right,,,,,,,,,,,,0,78,78,78,,,,,,,,,,,,,,,,,,,,,,,,,,,,,,,,,,,,,,,,1,,,,,,,,,,,,,,,,,,,,,,,,,850.623544299975,None,850.623544299975,None,right,1,1.1992057999596,850.623544299975,None,851.8466105996631,None,,,,,,,,,,,,,,,,,,,,,,,,,,,,,,,,,,40,Female,23,001,2021_Mar_10_1809,cal_abstract,2020.2.4,60.00412825957584,
,,,,Fix2,stimuli/Small/7.jpg,left,,,,,,,,,,,,0,79,79,79,,,,,,,,,,,,,,,,,,,,,,,,,,,,,,,,,,,,,,,,1,,,,,,,,,,,,,,,,,,,,,,,,,852.6576274000108,None,852.6576274000108,None,left,1,1.7745107002556324,852.6576274000108,None,854.455092899967,None,,,,,,,,,,,,,,,,,,,,,,,,,,,,,,,,,,40,Female,23,001,2021_Mar_10_1809,cal_abstract,2020.2.4,60.00412825957584,
,,,,Fix1,stimuli/Soft/37.jpg,right,,,,,,,,,,,,0,80,80,80,,,,,,,,,,,,,,,,,,,,,,,,,,,,,,,,,,,,,,,,1,,,,,,,,,,,,,,,,,,,,,,,,,855.2516990997829,None,855.2516990997829,None,right,1,1.4185949000529945,855.2516990997829,None,856.6869524996728,None,,,,,,,,,,,,,,,,,,,,,,,,,,,,,,,,,,40,Female,23,001,2021_Mar_10_1809,cal_abstract,2020.2.4,60.00412825957584,
,,,,Fix2,stimuli/Small/50.jpg,left,,,,,,,,,,,,0,81,81,81,,,,,,,,,,,,,,,,,,,,,,,,,,,,,,,,,,,,,,,,1,,,,,,,,,,,,,,,,,,,,,,,,,857.4719961998053,None,857.4719961998053,None,left,1,1.164266100153327,857.4719961998053,None,858.6673873998225,None,,,,,,,,,,,,,,,,,,,,,,,,,,,,,,,,,,40,Female,23,001,2021_Mar_10_1809,cal_abstract,2020.2.4,60.00412825957584,
,,,,Cond,stimuli/School/27.jpg,right,,,,,,,,,,,,0,82,82,82,,,,,,,,,,,,,,,,,,,,,,,,,,,,,,,,,,,,,,,,0,,,,,,,,,,,,,,,,,,,,,,,,,859.4276966997422,None,859.4276966997422,None,left,0,3.977855899836868,859.4276966997422,None,863.4374589999206,None,,,,,,,,,,,,,,,,,,,,,,,,,,,,,,,,,,40,Female,23,001,2021_Mar_10_1809,cal_abstract,2020.2.4,60.00412825957584,
,,,,Cond,stimuli/School/59.jpg,left,,,,,,,,,,,,0,83,83,83,,,,,,,,,,,,,,,,,,,,,,,,,,,,,,,,,,,,,,,,1,,,,,,,,,,,,,,,,,,,,,,,,,864.2349702999927,None,864.2349702999927,None,left,1,0.9199779001064599,864.2349702999927,None,865.1963423998095,None,,,,,,,,,,,,,,,,,,,,,,,,,,,,,,,,,,40,Female,23,001,2021_Mar_10_1809,cal_abstract,2020.2.4,60.00412825957584,
,,,,Fix1,stimuli/Soft/16.jpg,right,,,,,,,,,,,,0,84,84,84,,,,,,,,,,,,,,,,,,,,,,,,,,,,,,,,,,,,,,,,1,,,,,,,,,,,,,,,,,,,,,,,,,866.0236263996921,None,866.0236263996921,None,right,1,0.7840490997768939,866.0236263996921,None,866.8280941997655,None,,,,,,,,,,,,,,,,,,,,,,,,,,,,,,,,,,40,Female,23,001,2021_Mar_10_1809,cal_abstract,2020.2.4,60.00412825957584,
,,,,Cond,stimuli/School/41.jpg,left,,,,,,,,,,,,0,85,85,85,,,,,,,,,,,,,,,,,,,,,,,,,,,,,,,,,,,,,,,,1,,,,,,,,,,,,,,,,,,,,,,,,,867.6340262996964,None,867.6340262996964,None,left,1,1.1830803998745978,867.6340262996964,None,868.8440809999593,None,,,,,,,,,,,,,,,,,,,,,,,,,,,,,,,,,,40,Female,23,001,2021_Mar_10_1809,cal_abstract,2020.2.4,60.00412825957584,
