Text,Block1Type,Block1Stim,Block1Corr,Block2Type,Block2Stim,Block2Corr,Block3Type,Block3Stim,Block3Corr,Instruction_loop.thisRepN,Instruction_loop.thisTrialN,Instruction_loop.thisN,Instruction_loop.thisIndex,Block1_loop.thisRepN,Block1_loop.thisTrialN,Block1_loop.thisN,Block1_loop.thisIndex,Block2_loop.thisRepN,Block2_loop.thisTrialN,Block2_loop.thisN,Block2_loop.thisIndex,Block3_loop.thisRepN,Block3_loop.thisTrialN,Block3_loop.thisN,Block3_loop.thisIndex,welcome_text1.started,welcome_text1.stopped,welcome_text2.started,welcome_text2.stopped,welcome_text3.started,welcome_text3.stopped,welcome_resp.keys,welcome_resp.rt,welcome_resp.started,welcome_resp.stopped,instruct_text1.started,instruct_text1.stopped,instruct_text2.started,instruct_text2.stopped,instruct_resp1.keys,instruct_resp1.rt,instruct_resp1.started,instruct_resp1.stopped,start_text1.started,start_text1.stopped,start_text2.started,start_text2.stopped,start_resp1.keys,start_resp1.rt,start_resp1.started,start_resp1.stopped,image1.started,image1.stopped,text1.started,text1.stopped,key_resp1.keys,key_resp1.corr,key_resp1.rt,key_resp1.started,key_resp1.stopped,trialCorrect,feedback_text1.started,feedback_text1.stopped,break_text1.started,break_text1.stopped,break_resp1.keys,break_resp1.rt,break_resp1.started,break_resp1.stopped,start_text3.started,start_text3.stopped,start_text4.started,start_text4.stopped,start_resp2.keys,start_resp2.rt,start_resp2.started,start_resp2.stopped,image2.started,image2.stopped,text2.started,text2.stopped,key_resp2.keys,key_resp2.corr,key_resp2.rt,key_resp2.started,key_resp2.stopped,feedback_text2.started,feedback_text2.stopped,break_text2.started,break_text2.stopped,break_resp2.keys,break_resp2.rt,break_resp2.started,break_resp2.stopped,start_text5.started,start_text5.stopped,start_text6.started,start_text6.stopped,start_resp3.keys,start_resp3.rt,start_resp3.started,start_resp3.stopped,image3.started,image3.stopped,text3.started,text3.stopped,key_resp3.keys,key_resp3.corr,key_resp3.rt,key_resp3.started,key_resp3.stopped,feedback_text3.started,feedback_text3.stopped,end_text1.started,end_text1.stopped,end_text2.started,end_text2.stopped,end_resp.keys,end_resp.rt,end_resp.started,end_resp.stopped,participant,session,date,expName,psychopyVersion,frameRate,
,,,,,,,,,,,,,,,,,,,,,,,,,,23.39969325700008,None,23.39969325700008,None,23.39969325700008,None,return,3.5795550789998742,23.39969325700008,None,,,,,,,,,,,,,,,,,,,,,,,,,,,,,,,,,,,,,,,,,,,,,,,,,,,,,,,,,,,,,,,,,,,,,,,,,,,,,,,,,,,,,,,Friend 2,001,2021_Feb_23_2046,cal_abstract,2021.1.0,None,
"You will be presented with a series of images. It is your job to learn, through trial and error, whether the “Left” or “Right” arrow key should be pressed for each image.",,,,,,,,,,0,0,0,0,,,,,,,,,,,,,,,,,,,,,,,27.098349006000035,None,27.098349006000035,None,return,2.1309468469999047,27.098349006000035,None,,,,,,,,,,,,,,,,,,,,,,,,,,,,,,,,,,,,,,,,,,,,,,,,,,,,,,,,,,,,,,,,,,,,,,,,,,,,,,,Friend 2,001,2021_Feb_23_2046,cal_abstract,2021.1.0,None,
"For some images you should always press “Left”, and for others you should always press “Right” arrow key.",,,,,,,,,,0,1,1,1,,,,,,,,,,,,,,,,,,,,,,,29.304183291000072,None,29.304183291000072,None,return,0.2662209369998436,29.304183291000072,None,,,,,,,,,,,,,,,,,,,,,,,,,,,,,,,,,,,,,,,,,,,,,,,,,,,,,,,,,,,,,,,,,,,,,,,,,,,,,,,Friend 2,001,2021_Feb_23_2046,cal_abstract,2021.1.0,None,
"Some images are special: the correct response is the opposite of the preceding correct response. That is, if the previous correct answer was “Left” then the correct response would now be “Right”.",,,,,,,,,,0,2,2,2,,,,,,,,,,,,,,,,,,,,,,,29.647552959000222,None,29.647552959000222,None,return,0.2656146430001627,29.647552959000222,None,,,,,,,,,,,,,,,,,,,,,,,,,,,,,,,,,,,,,,,,,,,,,,,,,,,,,,,,,,,,,,,,,,,,,,,,,,,,,,,Friend 2,001,2021_Feb_23_2046,cal_abstract,2021.1.0,None,
"After each response, you will be told whether you got the item correct or incorrect.",,,,,,,,,,0,3,3,3,,,,,,,,,,,,,,,,,,,,,,,29.98113424600001,None,29.98113424600001,None,return,0.2849749839999731,29.98113424600001,None,,,,,,,,,,,,,,,,,,,,,,,,,,,,,,,,,,,,,,,,,,,,,,,,,,,,,,,,,,,,,,,,,,,,,,,,,,,,,,,Friend 2,001,2021_Feb_23_2046,cal_abstract,2021.1.0,None,
"You can take as long as you like on each image, but the task will not continue until you press the “Left” or “Right” arrow key.",,,,,,,,,,0,4,4,4,,,,,,,,,,,,,,,,,,,,,,,30.33085105300006,None,30.33085105300006,None,return,0.32728516699989996,30.33085105300006,None,,,,,,,,,,,,,,,,,,,,,,,,,,,,,,,,,,,,,,,,,,,,,,,,,,,,,,,,,,,,,,,,,,,,,,,,,,,,,,,Friend 2,001,2021_Feb_23_2046,cal_abstract,2021.1.0,None,
"The experiment will have three blocks, each block will take approximately 10 minutes to complete.",,,,,,,,,,0,5,5,5,,,,,,,,,,,,,,,,,,,,,,,30.73188873500021,None,30.73188873500021,None,return,0.28019374199993763,30.73188873500021,None,,,,,,,,,,,,,,,,,,,,,,,,,,,,,,,,,,,,,,,,,,,,,,,,,,,,,,,,,,,,,,,,,,,,,,,,,,,,,,,Friend 2,001,2021_Feb_23_2046,cal_abstract,2021.1.0,None,
None,,,,,,,,,,0,6,6,6,,,,,,,,,,,,,,,,,,,,,,,31.064771558000075,None,31.064771558000075,None,return,1.066344638999908,31.064771558000075,None,,,,,,,,,,,,,,,,,,,,,,,,,,,,,,,,,,,,,,,,,,,,,,,,,,,,,,,,,,,,,,,,,,,,,,,,,,,,,,,Friend 2,001,2021_Feb_23_2046,cal_abstract,2021.1.0,None,
None,,,,,,,,,,0,7,7,7,,,,,,,,,,,,,,,,,,,,,,,32.197322326000176,None,32.197322326000176,None,return,0.5216902980000668,32.197322326000176,None,,,,,,,,,,,,,,,,,,,,,,,,,,,,,,,,,,,,,,,,,,,,,,,,,,,,,,,,,,,,,,,,,,,,,,,,,,,,,,,Friend 2,001,2021_Feb_23_2046,cal_abstract,2021.1.0,None,
None,,,,,,,,,,0,8,8,8,,,,,,,,,,,,,,,,,,,,,,,32.76447906800013,None,32.76447906800013,None,return,0.5074857250001514,32.76447906800013,None,,,,,,,,,,,,,,,,,,,,,,,,,,,,,,,,,,,,,,,,,,,,,,,,,,,,,,,,,,,,,,,,,,,,,,,,,,,,,,,Friend 2,001,2021_Feb_23_2046,cal_abstract,2021.1.0,None,
None,,,,,,,,,,0,9,9,9,,,,,,,,,,,,,,,,,,,,,,,33.31333841500009,None,33.31333841500009,None,return,0.8300069449999228,33.31333841500009,None,,,,,,,,,,,,,,,,,,,,,,,,,,,,,,,,,,,,,,,,,,,,,,,,,,,,,,,,,,,,,,,,,,,,,,,,,,,,,,,Friend 2,001,2021_Feb_23_2046,cal_abstract,2021.1.0,None,
,,,,,,,,,,,,,,,,,,,,,,,,,,,,,,,,,,,,,,,,,,,,34.20163255500006,None,34.20163255500006,None,s,95.5759801700001,34.20163255500006,None,,,,,,,,,,,,,,,,,,,,,,,,,,,,,,,,,,,,,,,,,,,,,,,,,,,,,,,,,,,,,,,,,,,,,,,Friend 2,001,2021_Feb_23_2046,cal_abstract,2021.1.0,None,
,Fix2,stimuli/Dangerous/15.jpg,right,,,,,,,,,,,0,0,0,0,,,,,,,,,,,,,,,,,,,,,,,,,,,,,,,,,,,129.98075777600002,None,129.98075777600002,None,right,1,4.373302452999951,129.98075777600002,None,1,134.42389313600006,None,,,,,,,,,,,,,,,,,,,,,,,,,,,,,,,,,,,,,,,,,,,,,,,,,,,,,,,,,,,Friend 2,001,2021_Feb_23_2046,cal_abstract,2021.1.0,None,
,Fix1,stimuli/School/26.jpg,left,,,,,,,,,,,0,1,1,1,,,,,,,,,,,,,,,,,,,,,,,,,,,,,,,,,,,135.1962197790001,None,135.1962197790001,None,left,1,11.30134900400003,135.1962197790001,None,1,146.5640072990002,None,,,,,,,,,,,,,,,,,,,,,,,,,,,,,,,,,,,,,,,,,,,,,,,,,,,,,,,,,,,Friend 2,001,2021_Feb_23_2046,cal_abstract,2021.1.0,None,
,Cond,stimuli/Small/10.jpg,right,,,,,,,,,,,0,2,2,2,,,,,,,,,,,,,,,,,,,,,,,,,,,,,,,,,,,147.36833523200016,None,147.36833523200016,None,left,0,5.4468585619999885,147.36833523200016,None,0,152.8653607980002,None,,,,,,,,,,,,,,,,,,,,,,,,,,,,,,,,,,,,,,,,,,,,,,,,,,,,,,,,,,,Friend 2,001,2021_Feb_23_2046,cal_abstract,2021.1.0,None,
,Fix1,stimuli/School/25.jpg,left,,,,,,,,,,,0,3,3,3,,,,,,,,,,,,,,,,,,,,,,,,,,,,,,,,,,,153.69607664,None,153.69607664,None,right,0,2.7489417020001383,153.69607664,None,0,156.4961261540002,None,,,,,,,,,,,,,,,,,,,,,,,,,,,,,,,,,,,,,,,,,,,,,,,,,,,,,,,,,,,Friend 2,001,2021_Feb_23_2046,cal_abstract,2021.1.0,None,
,Fix2,stimuli/Dangerous/30.jpg,right,,,,,,,,,,,0,4,4,4,,,,,,,,,,,,,,,,,,,,,,,,,,,,,,,,,,,157.33078409400014,None,157.33078409400014,None,right,1,3.309623515999874,157.33078409400014,None,1,160.698469617,None,,,,,,,,,,,,,,,,,,,,,,,,,,,,,,,,,,,,,,,,,,,,,,,,,,,,,,,,,,,Friend 2,001,2021_Feb_23_2046,cal_abstract,2021.1.0,None,
,Fix2,stimuli/Dangerous/42.jpg,right,,,,,,,,,,,0,5,5,5,,,,,,,,,,,,,,,,,,,,,,,,,,,,,,,,,,,161.53021649700008,None,161.53021649700008,None,right,1,11.489418046999845,161.53021649700008,None,1,173.09578328500015,None,,,,,,,,,,,,,,,,,,,,,,,,,,,,,,,,,,,,,,,,,,,,,,,,,,,,,,,,,,,Friend 2,001,2021_Feb_23_2046,cal_abstract,2021.1.0,None,
,Cond,stimuli/Small/4.jpg,left,,,,,,,,,,,0,6,6,6,,,,,,,,,,,,,,,,,,,,,,,,,,,,,,,,,,,173.91385239600004,None,173.91385239600004,None,left,1,6.401391745999945,173.91385239600004,None,1,180.38470602200005,None,,,,,,,,,,,,,,,,,,,,,,,,,,,,,,,,,,,,,,,,,,,,,,,,,,,,,,,,,,,Friend 2,001,2021_Feb_23_2046,cal_abstract,2021.1.0,None,
,Fix2,stimuli/Dangerous/44.jpg,right,,,,,,,,,,,0,7,7,7,,,,,,,,,,,,,,,,,,,,,,,,,,,,,,,,,,,181.19570415500016,None,181.19570415500016,None,right,1,2.953165922999915,181.19570415500016,None,1,184.17860570400012,None,,,,,,,,,,,,,,,,,,,,,,,,,,,,,,,,,,,,,,,,,,,,,,,,,,,,,,,,,,,Friend 2,001,2021_Feb_23_2046,cal_abstract,2021.1.0,None,
,Cond,stimuli/Small/39.jpg,left,,,,,,,,,,,0,8,8,8,,,,,,,,,,,,,,,,,,,,,,,,,,,,,,,,,,,184.9620294150002,None,184.9620294150002,None,left,1,4.354664250000042,184.9620294150002,None,1,189.3817204720001,None,,,,,,,,,,,,,,,,,,,,,,,,,,,,,,,,,,,,,,,,,,,,,,,,,,,,,,,,,,,Friend 2,001,2021_Feb_23_2046,cal_abstract,2021.1.0,None,
,Fix2,stimuli/Dangerous/34.jpg,right,,,,,,,,,,,0,9,9,9,,,,,,,,,,,,,,,,,,,,,,,,,,,,,,,,,,,190.14466402400012,None,190.14466402400012,None,right,1,3.122874589000048,190.14466402400012,None,1,193.32840364800018,None,,,,,,,,,,,,,,,,,,,,,,,,,,,,,,,,,,,,,,,,,,,,,,,,,,,,,,,,,,,Friend 2,001,2021_Feb_23_2046,cal_abstract,2021.1.0,None,
,Cond,stimuli/Small/13.jpg,left,,,,,,,,,,,0,10,10,10,,,,,,,,,,,,,,,,,,,,,,,,,,,,,,,,,,,194.11247463000018,None,194.11247463000018,None,right,0,5.434822700000041,194.11247463000018,None,0,199.61530005500003,None,,,,,,,,,,,,,,,,,,,,,,,,,,,,,,,,,,,,,,,,,,,,,,,,,,,,,,,,,,,Friend 2,001,2021_Feb_23_2046,cal_abstract,2021.1.0,None,
,Fix2,stimuli/Dangerous/6.jpg,right,,,,,,,,,,,0,11,11,11,,,,,,,,,,,,,,,,,,,,,,,,,,,,,,,,,,,200.49795165700016,None,200.49795165700016,None,right,1,3.308953226999847,200.49795165700016,None,1,203.82858767000016,None,,,,,,,,,,,,,,,,,,,,,,,,,,,,,,,,,,,,,,,,,,,,,,,,,,,,,,,,,,,Friend 2,001,2021_Feb_23_2046,cal_abstract,2021.1.0,None,
,Fix2,stimuli/Dangerous/24.jpg,right,,,,,,,,,,,0,12,12,12,,,,,,,,,,,,,,,,,,,,,,,,,,,,,,,,,,,204.62855945200022,None,204.62855945200022,None,right,1,6.262002568999833,204.62855945200022,None,1,210.9451439850002,None,,,,,,,,,,,,,,,,,,,,,,,,,,,,,,,,,,,,,,,,,,,,,,,,,,,,,,,,,,,Friend 2,001,2021_Feb_23_2046,cal_abstract,2021.1.0,None,
,Cond,stimuli/Small/20.jpg,left,,,,,,,,,,,0,13,13,13,,,,,,,,,,,,,,,,,,,,,,,,,,,,,,,,,,,211.75935339900002,None,211.75935339900002,None,left,1,2.606398356999989,211.75935339900002,None,1,214.42827379100004,None,,,,,,,,,,,,,,,,,,,,,,,,,,,,,,,,,,,,,,,,,,,,,,,,,,,,,,,,,,,Friend 2,001,2021_Feb_23_2046,cal_abstract,2021.1.0,None,
,Fix2,stimuli/Dangerous/33.jpg,right,,,,,,,,,,,0,14,14,14,,,,,,,,,,,,,,,,,,,,,,,,,,,,,,,,,,,215.19659731000002,None,215.19659731000002,None,right,1,2.271335322000141,215.19659731000002,None,1,217.545146208,None,,,,,,,,,,,,,,,,,,,,,,,,,,,,,,,,,,,,,,,,,,,,,,,,,,,,,,,,,,,Friend 2,001,2021_Feb_23_2046,cal_abstract,2021.1.0,None,
,Cond,stimuli/Small/2.jpg,left,,,,,,,,,,,0,15,15,15,,,,,,,,,,,,,,,,,,,,,,,,,,,,,,,,,,,218.27939386900016,None,218.27939386900016,None,left,1,2.2551658919999227,218.27939386900016,None,1,220.58225179700003,None,,,,,,,,,,,,,,,,,,,,,,,,,,,,,,,,,,,,,,,,,,,,,,,,,,,,,,,,,,,Friend 2,001,2021_Feb_23_2046,cal_abstract,2021.1.0,None,
,Fix2,stimuli/Dangerous/41.jpg,right,,,,,,,,,,,0,16,16,16,,,,,,,,,,,,,,,,,,,,,,,,,,,,,,,,,,,221.3952749780001,None,221.3952749780001,None,right,1,2.0172217809999893,221.3952749780001,None,1,223.4442781690002,None,,,,,,,,,,,,,,,,,,,,,,,,,,,,,,,,,,,,,,,,,,,,,,,,,,,,,,,,,,,Friend 2,001,2021_Feb_23_2046,cal_abstract,2021.1.0,None,
,Fix1,stimuli/School/56.jpg,left,,,,,,,,,,,0,17,17,17,,,,,,,,,,,,,,,,,,,,,,,,,,,,,,,,,,,224.2114801250002,None,224.2114801250002,None,left,1,2.4077165010000954,224.2114801250002,None,1,226.64483502200005,None,,,,,,,,,,,,,,,,,,,,,,,,,,,,,,,,,,,,,,,,,,,,,,,,,,,,,,,,,,,Friend 2,001,2021_Feb_23_2046,cal_abstract,2021.1.0,None,
,Cond,stimuli/Small/57.jpg,right,,,,,,,,,,,0,18,18,18,,,,,,,,,,,,,,,,,,,,,,,,,,,,,,,,,,,227.46296615100005,None,227.46296615100005,None,left,0,9.419771027000024,227.46296615100005,None,0,236.9458661210001,None,,,,,,,,,,,,,,,,,,,,,,,,,,,,,,,,,,,,,,,,,,,,,,,,,,,,,,,,,,,Friend 2,001,2021_Feb_23_2046,cal_abstract,2021.1.0,None,
,Fix2,stimuli/Dangerous/58.jpg,right,,,,,,,,,,,0,19,19,19,,,,,,,,,,,,,,,,,,,,,,,,,,,,,,,,,,,237.74471884800005,None,237.74471884800005,None,right,1,4.040887735000069,237.74471884800005,None,1,241.81230992100018,None,,,,,,,,,,,,,,,,,,,,,,,,,,,,,,,,,,,,,,,,,,,,,,,,,,,,,,,,,,,Friend 2,001,2021_Feb_23_2046,cal_abstract,2021.1.0,None,
,Cond,stimuli/Small/58.jpg,left,,,,,,,,,,,0,20,20,20,,,,,,,,,,,,,,,,,,,,,,,,,,,,,,,,,,,242.61165407300018,None,242.61165407300018,None,right,0,7.266120023999974,242.61165407300018,None,0,249.8985910460001,None,,,,,,,,,,,,,,,,,,,,,,,,,,,,,,,,,,,,,,,,,,,,,,,,,,,,,,,,,,,Friend 2,001,2021_Feb_23_2046,cal_abstract,2021.1.0,None,
,Fix2,stimuli/Dangerous/20.jpg,right,,,,,,,,,,,0,21,21,21,,,,,,,,,,,,,,,,,,,,,,,,,,,,,,,,,,,250.69427046600003,None,250.69427046600003,None,right,1,2.316167961000019,250.69427046600003,None,1,253.03419351000002,None,,,,,,,,,,,,,,,,,,,,,,,,,,,,,,,,,,,,,,,,,,,,,,,,,,,,,,,,,,,Friend 2,001,2021_Feb_23_2046,cal_abstract,2021.1.0,None,
,Cond,stimuli/Small/29.jpg,left,,,,,,,,,,,0,22,22,22,,,,,,,,,,,,,,,,,,,,,,,,,,,,,,,,,,,253.8447941630002,None,253.8447941630002,None,left,1,5.169291372000089,253.8447941630002,None,1,259.0438612300002,None,,,,,,,,,,,,,,,,,,,,,,,,,,,,,,,,,,,,,,,,,,,,,,,,,,,,,,,,,,,Friend 2,001,2021_Feb_23_2046,cal_abstract,2021.1.0,None,
,Fix2,stimuli/Dangerous/46.jpg,right,,,,,,,,,,,0,23,23,23,,,,,,,,,,,,,,,,,,,,,,,,,,,,,,,,,,,259.84580232200005,None,259.84580232200005,None,right,1,2.632239532000085,259.84580232200005,None,1,262.52804985800003,None,,,,,,,,,,,,,,,,,,,,,,,,,,,,,,,,,,,,,,,,,,,,,,,,,,,,,,,,,,,Friend 2,001,2021_Feb_23_2046,cal_abstract,2021.1.0,None,
,Fix1,stimuli/School/10.jpg,left,,,,,,,,,,,0,24,24,24,,,,,,,,,,,,,,,,,,,,,,,,,,,,,,,,,,,263.29462812400016,None,263.29462812400016,None,left,1,2.7243205190000026,263.29462812400016,None,1,266.0651100100001,None,,,,,,,,,,,,,,,,,,,,,,,,,,,,,,,,,,,,,,,,,,,,,,,,,,,,,,,,,,,Friend 2,001,2021_Feb_23_2046,cal_abstract,2021.1.0,None,
,Fix1,stimuli/School/50.jpg,left,,,,,,,,,,,0,25,25,25,,,,,,,,,,,,,,,,,,,,,,,,,,,,,,,,,,,266.876228844,None,266.876228844,None,right,0,12.01787970800001,266.876228844,None,0,278.9627109380001,None,,,,,,,,,,,,,,,,,,,,,,,,,,,,,,,,,,,,,,,,,,,,,,,,,,,,,,,,,,,Friend 2,001,2021_Feb_23_2046,cal_abstract,2021.1.0,None,
,Cond,stimuli/Small/19.jpg,right,,,,,,,,,,,0,26,26,26,,,,,,,,,,,,,,,,,,,,,,,,,,,,,,,,,,,279.6946573900002,None,279.6946573900002,None,left,0,4.28124415100001,279.6946573900002,None,0,284.04492598800016,None,,,,,,,,,,,,,,,,,,,,,,,,,,,,,,,,,,,,,,,,,,,,,,,,,,,,,,,,,,,Friend 2,001,2021_Feb_23_2046,cal_abstract,2021.1.0,None,
,Fix1,stimuli/School/28.jpg,left,,,,,,,,,,,0,27,27,27,,,,,,,,,,,,,,,,,,,,,,,,,,,,,,,,,,,284.7783774210002,None,284.7783774210002,None,left,1,2.4521761980001884,284.7783774210002,None,1,287.27836755600015,None,,,,,,,,,,,,,,,,,,,,,,,,,,,,,,,,,,,,,,,,,,,,,,,,,,,,,,,,,,,Friend 2,001,2021_Feb_23_2046,cal_abstract,2021.1.0,None,
,Fix1,stimuli/School/35.jpg,left,,,,,,,,,,,0,28,28,28,,,,,,,,,,,,,,,,,,,,,,,,,,,,,,,,,,,288.0949236460001,None,288.0949236460001,None,right,0,2.6465786539999954,288.0949236460001,None,0,290.793240361,None,,,,,,,,,,,,,,,,,,,,,,,,,,,,,,,,,,,,,,,,,,,,,,,,,,,,,,,,,,,Friend 2,001,2021_Feb_23_2046,cal_abstract,2021.1.0,None,
,Fix1,stimuli/School/39.jpg,left,,,,,,,,,,,0,29,29,29,,,,,,,,,,,,,,,,,,,,,,,,,,,,,,,,,,,291.54349874700006,None,291.54349874700006,None,left,1,4.86765699700004,291.54349874700006,None,1,296.4596557530001,None,,,,,,,,,,,,,,,,,,,,,,,,,,,,,,,,,,,,,,,,,,,,,,,,,,,,,,,,,,,Friend 2,001,2021_Feb_23_2046,cal_abstract,2021.1.0,None,
,Cond,stimuli/Small/42.jpg,right,,,,,,,,,,,0,30,30,30,,,,,,,,,,,,,,,,,,,,,,,,,,,,,,,,,,,297.2446090430001,None,297.2446090430001,None,right,1,2.450959593999869,297.2446090430001,None,1,299.72665983700017,None,,,,,,,,,,,,,,,,,,,,,,,,,,,,,,,,,,,,,,,,,,,,,,,,,,,,,,,,,,,Friend 2,001,2021_Feb_23_2046,cal_abstract,2021.1.0,None,
,Fix2,stimuli/Dangerous/31.jpg,right,,,,,,,,,,,0,31,31,31,,,,,,,,,,,,,,,,,,,,,,,,,,,,,,,,,,,300.52693392800006,None,300.52693392800006,None,right,1,2.133575219999784,300.52693392800006,None,1,302.6780056140001,None,,,,,,,,,,,,,,,,,,,,,,,,,,,,,,,,,,,,,,,,,,,,,,,,,,,,,,,,,,,Friend 2,001,2021_Feb_23_2046,cal_abstract,2021.1.0,None,
,Cond,stimuli/Small/25.jpg,left,,,,,,,,,,,0,32,32,32,,,,,,,,,,,,,,,,,,,,,,,,,,,,,,,,,,,303.4611488730002,None,303.4611488730002,None,left,1,12.64638018300002,303.4611488730002,None,1,316.1600640930001,None,,,,,,,,,,,,,,,,,,,,,,,,,,,,,,,,,,,,,,,,,,,,,,,,,,,,,,,,,,,Friend 2,001,2021_Feb_23_2046,cal_abstract,2021.1.0,None,
,Cond,stimuli/Small/9.jpg,right,,,,,,,,,,,0,33,33,33,,,,,,,,,,,,,,,,,,,,,,,,,,,,,,,,,,,316.96113706200003,None,316.96113706200003,None,right,1,3.262864742999909,316.96113706200003,None,1,320.2773877620002,None,,,,,,,,,,,,,,,,,,,,,,,,,,,,,,,,,,,,,,,,,,,,,,,,,,,,,,,,,,,Friend 2,001,2021_Feb_23_2046,cal_abstract,2021.1.0,None,
,Fix1,stimuli/School/9.jpg,left,,,,,,,,,,,0,34,34,34,,,,,,,,,,,,,,,,,,,,,,,,,,,,,,,,,,,321.0434931450002,None,321.0434931450002,None,left,1,3.394038926999883,321.0434931450002,None,1,324.51166611100007,None,,,,,,,,,,,,,,,,,,,,,,,,,,,,,,,,,,,,,,,,,,,,,,,,,,,,,,,,,,,Friend 2,001,2021_Feb_23_2046,cal_abstract,2021.1.0,None,
,Fix1,stimuli/School/23.jpg,left,,,,,,,,,,,0,35,35,35,,,,,,,,,,,,,,,,,,,,,,,,,,,,,,,,,,,325.2439490170002,None,325.2439490170002,None,left,1,2.4946057319998545,325.2439490170002,None,1,327.7596102130001,None,,,,,,,,,,,,,,,,,,,,,,,,,,,,,,,,,,,,,,,,,,,,,,,,,,,,,,,,,,,Friend 2,001,2021_Feb_23_2046,cal_abstract,2021.1.0,None,
,Fix1,stimuli/School/54.jpg,left,,,,,,,,,,,0,36,36,36,,,,,,,,,,,,,,,,,,,,,,,,,,,,,,,,,,,328.54365334500017,None,328.54365334500017,None,right,0,2.626395689999981,328.54365334500017,None,0,331.2106960670001,None,,,,,,,,,,,,,,,,,,,,,,,,,,,,,,,,,,,,,,,,,,,,,,,,,,,,,,,,,,,Friend 2,001,2021_Feb_23_2046,cal_abstract,2021.1.0,None,
,Cond,stimuli/Small/43.jpg,right,,,,,,,,,,,0,37,37,37,,,,,,,,,,,,,,,,,,,,,,,,,,,,,,,,,,,332.0116042070001,None,332.0116042070001,None,left,0,2.696337887000027,332.0116042070001,None,0,334.7598784270001,None,,,,,,,,,,,,,,,,,,,,,,,,,,,,,,,,,,,,,,,,,,,,,,,,,,,,,,,,,,,Friend 2,001,2021_Feb_23_2046,cal_abstract,2021.1.0,None,
,Fix2,stimuli/Dangerous/22.jpg,right,,,,,,,,,,,0,38,38,38,,,,,,,,,,,,,,,,,,,,,,,,,,,,,,,,,,,335.5100973860001,None,335.5100973860001,None,right,1,5.697615603000031,335.5100973860001,None,1,341.22656070300013,None,,,,,,,,,,,,,,,,,,,,,,,,,,,,,,,,,,,,,,,,,,,,,,,,,,,,,,,,,,,Friend 2,001,2021_Feb_23_2046,cal_abstract,2021.1.0,None,
,Fix2,stimuli/Dangerous/43.jpg,right,,,,,,,,,,,0,39,39,39,,,,,,,,,,,,,,,,,,,,,,,,,,,,,,,,,,,342.02616681400013,None,342.02616681400013,None,right,1,6.365221383000062,342.02616681400013,None,1,348.4430670470001,None,,,,,,,,,,,,,,,,,,,,,,,,,,,,,,,,,,,,,,,,,,,,,,,,,,,,,,,,,,,Friend 2,001,2021_Feb_23_2046,cal_abstract,2021.1.0,None,
,Cond,stimuli/Small/36.jpg,left,,,,,,,,,,,0,40,40,40,,,,,,,,,,,,,,,,,,,,,,,,,,,,,,,,,,,349.24291888000016,None,349.24291888000016,None,left,1,2.8414285060000566,349.24291888000016,None,1,352.14258274300005,None,,,,,,,,,,,,,,,,,,,,,,,,,,,,,,,,,,,,,,,,,,,,,,,,,,,,,,,,,,,Friend 2,001,2021_Feb_23_2046,cal_abstract,2021.1.0,None,
,Fix2,stimuli/Dangerous/38.jpg,right,,,,,,,,,,,0,41,41,41,,,,,,,,,,,,,,,,,,,,,,,,,,,,,,,,,,,352.9269258180002,None,352.9269258180002,None,right,1,2.8102305400000205,352.9269258180002,None,1,355.7593620570001,None,,,,,,,,,,,,,,,,,,,,,,,,,,,,,,,,,,,,,,,,,,,,,,,,,,,,,,,,,,,Friend 2,001,2021_Feb_23_2046,cal_abstract,2021.1.0,None,
,Fix1,stimuli/School/18.jpg,left,,,,,,,,,,,0,42,42,42,,,,,,,,,,,,,,,,,,,,,,,,,,,,,,,,,,,356.5590693500001,None,356.5590693500001,None,left,1,2.7980028439999387,356.5590693500001,None,1,359.4097944540001,None,,,,,,,,,,,,,,,,,,,,,,,,,,,,,,,,,,,,,,,,,,,,,,,,,,,,,,,,,,,Friend 2,001,2021_Feb_23_2046,cal_abstract,2021.1.0,None,
,Fix1,stimuli/School/36.jpg,left,,,,,,,,,,,0,43,43,43,,,,,,,,,,,,,,,,,,,,,,,,,,,,,,,,,,,360.2114330630002,None,360.2114330630002,None,left,1,2.8965488450000976,360.2114330630002,None,1,363.12658634700006,None,,,,,,,,,,,,,,,,,,,,,,,,,,,,,,,,,,,,,,,,,,,,,,,,,,,,,,,,,,,Friend 2,001,2021_Feb_23_2046,cal_abstract,2021.1.0,None,
,Fix1,stimuli/School/48.jpg,left,,,,,,,,,,,0,44,44,44,,,,,,,,,,,,,,,,,,,,,,,,,,,,,,,,,,,363.9429914330001,None,363.9429914330001,None,right,0,3.1402925310001137,363.9429914330001,None,0,367.1109973020002,None,,,,,,,,,,,,,,,,,,,,,,,,,,,,,,,,,,,,,,,,,,,,,,,,,,,,,,,,,,,Friend 2,001,2021_Feb_23_2046,cal_abstract,2021.1.0,None,
,Fix1,stimuli/School/42.jpg,left,,,,,,,,,,,0,45,45,45,,,,,,,,,,,,,,,,,,,,,,,,,,,,,,,,,,,367.92571099300017,None,367.92571099300017,None,left,1,2.4287826380000297,367.92571099300017,None,1,370.4095259100002,None,,,,,,,,,,,,,,,,,,,,,,,,,,,,,,,,,,,,,,,,,,,,,,,,,,,,,,,,,,,Friend 2,001,2021_Feb_23_2046,cal_abstract,2021.1.0,None,
,Cond,stimuli/Small/23.jpg,right,,,,,,,,,,,0,46,46,46,,,,,,,,,,,,,,,,,,,,,,,,,,,,,,,,,,,371.1586915900002,None,371.1586915900002,None,right,1,3.1938527369998155,371.1586915900002,None,1,374.3911505020001,None,,,,,,,,,,,,,,,,,,,,,,,,,,,,,,,,,,,,,,,,,,,,,,,,,,,,,,,,,,,Friend 2,001,2021_Feb_23_2046,cal_abstract,2021.1.0,None,
,Cond,stimuli/Small/38.jpg,left,,,,,,,,,,,0,47,47,47,,,,,,,,,,,,,,,,,,,,,,,,,,,,,,,,,,,375.19273002900013,None,375.19273002900013,None,left,1,2.697691015000146,375.19273002900013,None,1,377.92593001600017,None,,,,,,,,,,,,,,,,,,,,,,,,,,,,,,,,,,,,,,,,,,,,,,,,,,,,,,,,,,,Friend 2,001,2021_Feb_23_2046,cal_abstract,2021.1.0,None,
,Cond,stimuli/Small/55.jpg,right,,,,,,,,,,,0,48,48,48,,,,,,,,,,,,,,,,,,,,,,,,,,,,,,,,,,,378.7271341080002,None,378.7271341080002,None,left,0,4.03615093999997,378.7271341080002,None,0,382.81025457500004,None,,,,,,,,,,,,,,,,,,,,,,,,,,,,,,,,,,,,,,,,,,,,,,,,,,,,,,,,,,,Friend 2,001,2021_Feb_23_2046,cal_abstract,2021.1.0,None,
,Cond,stimuli/Small/1.jpg,left,,,,,,,,,,,0,49,49,49,,,,,,,,,,,,,,,,,,,,,,,,,,,,,,,,,,,383.627370057,None,383.627370057,None,left,1,2.5017490969999017,383.627370057,None,1,386.1764398780001,None,,,,,,,,,,,,,,,,,,,,,,,,,,,,,,,,,,,,,,,,,,,,,,,,,,,,,,,,,,,Friend 2,001,2021_Feb_23_2046,cal_abstract,2021.1.0,None,
,Fix1,stimuli/School/6.jpg,left,,,,,,,,,,,0,50,50,50,,,,,,,,,,,,,,,,,,,,,,,,,,,,,,,,,,,386.9924058050001,None,386.9924058050001,None,left,1,1.9687011800001528,386.9924058050001,None,1,389.0256556280001,None,,,,,,,,,,,,,,,,,,,,,,,,,,,,,,,,,,,,,,,,,,,,,,,,,,,,,,,,,,,Friend 2,001,2021_Feb_23_2046,cal_abstract,2021.1.0,None,
,Fix2,stimuli/Dangerous/18.jpg,right,,,,,,,,,,,0,51,51,51,,,,,,,,,,,,,,,,,,,,,,,,,,,,,,,,,,,389.8271912560001,None,389.8271912560001,None,right,1,1.9210384059999797,389.8271912560001,None,1,391.8083556280001,None,,,,,,,,,,,,,,,,,,,,,,,,,,,,,,,,,,,,,,,,,,,,,,,,,,,,,,,,,,,Friend 2,001,2021_Feb_23_2046,cal_abstract,2021.1.0,None,
,Fix1,stimuli/School/1.jpg,left,,,,,,,,,,,0,52,52,52,,,,,,,,,,,,,,,,,,,,,,,,,,,,,,,,,,,392.59206258400013,None,392.59206258400013,None,left,1,2.40681116199994,392.59206258400013,None,1,395.02767520700013,None,,,,,,,,,,,,,,,,,,,,,,,,,,,,,,,,,,,,,,,,,,,,,,,,,,,,,,,,,,,Friend 2,001,2021_Feb_23_2046,cal_abstract,2021.1.0,None,
,Cond,stimuli/Small/33.jpg,right,,,,,,,,,,,0,53,53,53,,,,,,,,,,,,,,,,,,,,,,,,,,,,,,,,,,,395.8092381050001,None,395.8092381050001,None,right,1,2.1826456169999346,395.8092381050001,None,1,398.0587820390001,None,,,,,,,,,,,,,,,,,,,,,,,,,,,,,,,,,,,,,,,,,,,,,,,,,,,,,,,,,,,Friend 2,001,2021_Feb_23_2046,cal_abstract,2021.1.0,None,
,Cond,stimuli/Small/12.jpg,left,,,,,,,,,,,0,54,54,54,,,,,,,,,,,,,,,,,,,,,,,,,,,,,,,,,,,398.80994033800016,None,398.80994033800016,None,left,1,2.2287764550001157,398.80994033800016,None,1,401.0592757260001,None,,,,,,,,,,,,,,,,,,,,,,,,,,,,,,,,,,,,,,,,,,,,,,,,,,,,,,,,,,,Friend 2,001,2021_Feb_23_2046,cal_abstract,2021.1.0,None,
,Cond,stimuli/Small/17.jpg,right,,,,,,,,,,,0,55,55,55,,,,,,,,,,,,,,,,,,,,,,,,,,,,,,,,,,,401.8607675170001,None,401.8607675170001,None,left,0,2.4068156680000357,401.8607675170001,None,0,404.29297206900014,None,,,,,,,,,,,,,,,,,,,,,,,,,,,,,,,,,,,,,,,,,,,,,,,,,,,,,,,,,,,Friend 2,001,2021_Feb_23_2046,cal_abstract,2021.1.0,None,
,Fix1,stimuli/School/17.jpg,left,,,,,,,,,,,0,56,56,56,,,,,,,,,,,,,,,,,,,,,,,,,,,,,,,,,,,405.0931693320001,None,405.0931693320001,None,left,1,3.124532975999955,405.0931693320001,None,1,408.24085346100014,None,,,,,,,,,,,,,,,,,,,,,,,,,,,,,,,,,,,,,,,,,,,,,,,,,,,,,,,,,,,Friend 2,001,2021_Feb_23_2046,cal_abstract,2021.1.0,None,
,Cond,stimuli/Small/11.jpg,right,,,,,,,,,,,0,57,57,57,,,,,,,,,,,,,,,,,,,,,,,,,,,,,,,,,,,409.04380427800015,None,409.04380427800015,None,right,1,2.2895067120000476,409.04380427800015,None,1,411.3743937930001,None,,,,,,,,,,,,,,,,,,,,,,,,,,,,,,,,,,,,,,,,,,,,,,,,,,,,,,,,,,,Friend 2,001,2021_Feb_23_2046,cal_abstract,2021.1.0,None,
,Fix1,stimuli/School/33.jpg,left,,,,,,,,,,,0,58,58,58,,,,,,,,,,,,,,,,,,,,,,,,,,,,,,,,,,,412.17678220000016,None,412.17678220000016,None,right,0,5.776569898999924,412.17678220000016,None,0,417.975516662,None,,,,,,,,,,,,,,,,,,,,,,,,,,,,,,,,,,,,,,,,,,,,,,,,,,,,,,,,,,,Friend 2,001,2021_Feb_23_2046,cal_abstract,2021.1.0,None,
,Cond,stimuli/Small/18.jpg,right,,,,,,,,,,,0,59,59,59,,,,,,,,,,,,,,,,,,,,,,,,,,,,,,,,,,,418.7601654340001,None,418.7601654340001,None,left,0,6.078784424000105,418.7601654340001,None,0,424.8749215500002,None,,,,,,,,,,,,,,,,,,,,,,,,,,,,,,,,,,,,,,,,,,,,,,,,,,,,,,,,,,,Friend 2,001,2021_Feb_23_2046,cal_abstract,2021.1.0,None,
,Fix2,stimuli/Dangerous/61.jpg,right,,,,,,,,,,,0,60,60,60,,,,,,,,,,,,,,,,,,,,,,,,,,,,,,,,,,,425.6762375940002,None,425.6762375940002,None,right,1,2.0555606390000776,425.6762375940002,None,1,427.7594430710001,None,,,,,,,,,,,,,,,,,,,,,,,,,,,,,,,,,,,,,,,,,,,,,,,,,,,,,,,,,,,Friend 2,001,2021_Feb_23_2046,cal_abstract,2021.1.0,None,
,Fix2,stimuli/Dangerous/32.jpg,right,,,,,,,,,,,0,61,61,61,,,,,,,,,,,,,,,,,,,,,,,,,,,,,,,,,,,428.57522381900003,None,428.57522381900003,None,right,1,1.97967632100017,428.57522381900003,None,1,430.6088390320001,None,,,,,,,,,,,,,,,,,,,,,,,,,,,,,,,,,,,,,,,,,,,,,,,,,,,,,,,,,,,Friend 2,001,2021_Feb_23_2046,cal_abstract,2021.1.0,None,
,Fix2,stimuli/Dangerous/28.jpg,right,,,,,,,,,,,0,62,62,62,,,,,,,,,,,,,,,,,,,,,,,,,,,,,,,,,,,431.35968919100014,None,431.35968919100014,None,right,1,2.031005010999934,431.35968919100014,None,1,433.42516998400015,None,,,,,,,,,,,,,,,,,,,,,,,,,,,,,,,,,,,,,,,,,,,,,,,,,,,,,,,,,,,Friend 2,001,2021_Feb_23_2046,cal_abstract,2021.1.0,None,
,Cond,stimuli/Small/16.jpg,left,,,,,,,,,,,0,63,63,63,,,,,,,,,,,,,,,,,,,,,,,,,,,,,,,,,,,434.22602583800017,None,434.22602583800017,None,left,1,3.9905395759999465,434.22602583800017,None,1,438.2749572240002,None,,,,,,,,,,,,,,,,,,,,,,,,,,,,,,,,,,,,,,,,,,,,,,,,,,,,,,,,,,,Friend 2,001,2021_Feb_23_2046,cal_abstract,2021.1.0,None,
,Cond,stimuli/Small/14.jpg,right,,,,,,,,,,,0,64,64,64,,,,,,,,,,,,,,,,,,,,,,,,,,,,,,,,,,,439.0243340410002,None,439.0243340410002,None,right,1,1.8420870859999923,439.0243340410002,None,1,440.8922500990002,None,,,,,,,,,,,,,,,,,,,,,,,,,,,,,,,,,,,,,,,,,,,,,,,,,,,,,,,,,,,Friend 2,001,2021_Feb_23_2046,cal_abstract,2021.1.0,None,
,Fix2,stimuli/Dangerous/35.jpg,right,,,,,,,,,,,0,65,65,65,,,,,,,,,,,,,,,,,,,,,,,,,,,,,,,,,,,441.6936659260002,None,441.6936659260002,None,right,1,1.9296729210000194,441.6936659260002,None,1,443.6521660400001,None,,,,,,,,,,,,,,,,,,,,,,,,,,,,,,,,,,,,,,,,,,,,,,,,,,,,,,,,,,,Friend 2,001,2021_Feb_23_2046,cal_abstract,2021.1.0,None,
,Fix2,stimuli/Dangerous/3.jpg,right,,,,,,,,,,,0,66,66,66,,,,,,,,,,,,,,,,,,,,,,,,,,,,,,,,,,,444.4431355690001,None,444.4431355690001,None,right,1,2.1791555190000054,444.4431355690001,None,1,446.675831257,None,,,,,,,,,,,,,,,,,,,,,,,,,,,,,,,,,,,,,,,,,,,,,,,,,,,,,,,,,,,Friend 2,001,2021_Feb_23_2046,cal_abstract,2021.1.0,None,
,Cond,stimuli/Small/45.jpg,left,,,,,,,,,,,0,67,67,67,,,,,,,,,,,,,,,,,,,,,,,,,,,,,,,,,,,447.46997156400016,None,447.46997156400016,None,left,1,1.7401814209999884,447.46997156400016,None,1,449.2753609220001,None,,,,,,,,,,,,,,,,,,,,,,,,,,,,,,,,,,,,,,,,,,,,,,,,,,,,,,,,,,,Friend 2,001,2021_Feb_23_2046,cal_abstract,2021.1.0,None,
,Fix2,stimuli/Dangerous/10.jpg,right,,,,,,,,,,,0,68,68,68,,,,,,,,,,,,,,,,,,,,,,,,,,,,,,,,,,,450.0418814660002,None,450.0418814660002,None,right,1,1.5671996639998724,450.0418814660002,None,1,451.6585058580001,None,,,,,,,,,,,,,,,,,,,,,,,,,,,,,,,,,,,,,,,,,,,,,,,,,,,,,,,,,,,Friend 2,001,2021_Feb_23_2046,cal_abstract,2021.1.0,None,
,Fix2,stimuli/Dangerous/9.jpg,right,,,,,,,,,,,0,69,69,69,,,,,,,,,,,,,,,,,,,,,,,,,,,,,,,,,,,452.4742553570002,None,452.4742553570002,None,right,1,0.9568640689999484,452.4742553570002,None,1,453.4572807630002,None,,,,,,,,,,,,,,,,,,,,,,,,,,,,,,,,,,,,,,,,,,,,,,,,,,,,,,,,,,,Friend 2,001,2021_Feb_23_2046,cal_abstract,2021.1.0,None,
,Cond,stimuli/Small/31.jpg,left,,,,,,,,,,,0,70,70,70,,,,,,,,,,,,,,,,,,,,,,,,,,,,,,,,,,,454.2425462410001,None,454.2425462410001,None,left,1,1.8566325199999483,454.2425462410001,None,1,456.1521416490002,None,,,,,,,,,,,,,,,,,,,,,,,,,,,,,,,,,,,,,,,,,,,,,,,,,,,,,,,,,,,Friend 2,001,2021_Feb_23_2046,cal_abstract,2021.1.0,None,
,Fix1,stimuli/School/19.jpg,left,,,,,,,,,,,0,71,71,71,,,,,,,,,,,,,,,,,,,,,,,,,,,,,,,,,,,456.9252367800002,None,456.9252367800002,None,right,0,14.691384219999918,456.9252367800002,None,0,471.691349659,None,,,,,,,,,,,,,,,,,,,,,,,,,,,,,,,,,,,,,,,,,,,,,,,,,,,,,,,,,,,Friend 2,001,2021_Feb_23_2046,cal_abstract,2021.1.0,None,
,Fix1,stimuli/School/11.jpg,left,,,,,,,,,,,0,72,72,72,,,,,,,,,,,,,,,,,,,,,,,,,,,,,,,,,,,472.4415375850001,None,472.4415375850001,None,left,1,2.8468101190001107,472.4415375850001,None,1,475.3409125580001,None,,,,,,,,,,,,,,,,,,,,,,,,,,,,,,,,,,,,,,,,,,,,,,,,,,,,,,,,,,,Friend 2,001,2021_Feb_23_2046,cal_abstract,2021.1.0,None,
,Fix1,stimuli/School/31.jpg,left,,,,,,,,,,,0,73,73,73,,,,,,,,,,,,,,,,,,,,,,,,,,,,,,,,,,,476.0910050000002,None,476.0910050000002,None,left,1,2.0282411950001915,476.0910050000002,None,1,478.1570238680001,None,,,,,,,,,,,,,,,,,,,,,,,,,,,,,,,,,,,,,,,,,,,,,,,,,,,,,,,,,,,Friend 2,001,2021_Feb_23_2046,cal_abstract,2021.1.0,None,
,Fix1,stimuli/School/21.jpg,left,,,,,,,,,,,0,74,74,74,,,,,,,,,,,,,,,,,,,,,,,,,,,,,,,,,,,478.95890402400005,None,478.95890402400005,None,right,0,6.0011943419999625,478.95890402400005,None,0,484.9951565230001,None,,,,,,,,,,,,,,,,,,,,,,,,,,,,,,,,,,,,,,,,,,,,,,,,,,,,,,,,,,,Friend 2,001,2021_Feb_23_2046,cal_abstract,2021.1.0,None,
,Fix1,stimuli/School/55.jpg,left,,,,,,,,,,,0,75,75,75,,,,,,,,,,,,,,,,,,,,,,,,,,,,,,,,,,,485.79160921000016,None,485.79160921000016,None,left,1,2.4603580559999045,485.79160921000016,None,1,488.27552138300007,None,,,,,,,,,,,,,,,,,,,,,,,,,,,,,,,,,,,,,,,,,,,,,,,,,,,,,,,,,,,Friend 2,001,2021_Feb_23_2046,cal_abstract,2021.1.0,None,
,Cond,stimuli/Small/32.jpg,right,,,,,,,,,,,0,76,76,76,,,,,,,,,,,,,,,,,,,,,,,,,,,,,,,,,,,489.0573857260001,None,489.0573857260001,None,right,1,5.734814849000031,489.0573857260001,None,1,494.85991369500016,None,,,,,,,,,,,,,,,,,,,,,,,,,,,,,,,,,,,,,,,,,,,,,,,,,,,,,,,,,,,Friend 2,001,2021_Feb_23_2046,cal_abstract,2021.1.0,None,
,Fix2,stimuli/Dangerous/48.jpg,right,,,,,,,,,,,0,77,77,77,,,,,,,,,,,,,,,,,,,,,,,,,,,,,,,,,,,495.6417071860001,None,495.6417071860001,None,right,1,2.8969776689998525,495.6417071860001,None,1,498.55884454600005,None,,,,,,,,,,,,,,,,,,,,,,,,,,,,,,,,,,,,,,,,,,,,,,,,,,,,,,,,,,,Friend 2,001,2021_Feb_23_2046,cal_abstract,2021.1.0,None,
,Cond,stimuli/Small/5.jpg,left,,,,,,,,,,,0,78,78,78,,,,,,,,,,,,,,,,,,,,,,,,,,,,,,,,,,,499.37439752700016,None,499.37439752700016,None,left,1,3.0923520789999657,499.37439752700016,None,1,502.49152539600004,None,,,,,,,,,,,,,,,,,,,,,,,,,,,,,,,,,,,,,,,,,,,,,,,,,,,,,,,,,,,Friend 2,001,2021_Feb_23_2046,cal_abstract,2021.1.0,None,
,Fix1,stimuli/School/37.jpg,left,,,,,,,,,,,0,79,79,79,,,,,,,,,,,,,,,,,,,,,,,,,,,,,,,,,,,503.29202045700004,None,503.29202045700004,None,left,1,2.3904536519999056,503.29202045700004,None,1,505.74127532800003,None,,,,,,,,,,,,,,,,,,,,,,,,,,,,,,,,,,,,,,,,,,,,,,,,,,,,,,,,,,,Friend 2,001,2021_Feb_23_2046,cal_abstract,2021.1.0,None,
,Fix1,stimuli/School/27.jpg,left,,,,,,,,,,,0,80,80,80,,,,,,,,,,,,,,,,,,,,,,,,,,,,,,,,,,,506.491422477,None,506.491422477,None,left,1,3.4208905390000837,506.491422477,None,1,509.9572571430001,None,,,,,,,,,,,,,,,,,,,,,,,,,,,,,,,,,,,,,,,,,,,,,,,,,,,,,,,,,,,Friend 2,001,2021_Feb_23_2046,cal_abstract,2021.1.0,None,
,Cond,stimuli/Small/28.jpg,right,,,,,,,,,,,0,81,81,81,,,,,,,,,,,,,,,,,,,,,,,,,,,,,,,,,,,510.75753335000013,None,510.75753335000013,None,right,1,12.114658176000148,510.75753335000013,None,1,522.89353587,None,,,,,,,,,,,,,,,,,,,,,,,,,,,,,,,,,,,,,,,,,,,,,,,,,,,,,,,,,,,Friend 2,001,2021_Feb_23_2046,cal_abstract,2021.1.0,None,
,Cond,stimuli/Small/30.jpg,left,,,,,,,,,,,0,82,82,82,,,,,,,,,,,,,,,,,,,,,,,,,,,,,,,,,,,523.6909157290002,None,523.6909157290002,None,right,0,4.156522860999985,523.6909157290002,None,0,527.9084585980002,None,,,,,,,,,,,,,,,,,,,,,,,,,,,,,,,,,,,,,,,,,,,,,,,,,,,,,,,,,,,Friend 2,001,2021_Feb_23_2046,cal_abstract,2021.1.0,None,
,Fix1,stimuli/School/59.jpg,left,,,,,,,,,,,0,83,83,83,,,,,,,,,,,,,,,,,,,,,,,,,,,,,,,,,,,528.6575687100001,None,528.6575687100001,None,left,1,2.885417623999956,528.6575687100001,None,1,531.5905207980002,None,,,,,,,,,,,,,,,,,,,,,,,,,,,,,,,,,,,,,,,,,,,,,,,,,,,,,,,,,,,Friend 2,001,2021_Feb_23_2046,cal_abstract,2021.1.0,None,
,Fix2,stimuli/Dangerous/7.jpg,right,,,,,,,,,,,0,84,84,84,,,,,,,,,,,,,,,,,,,,,,,,,,,,,,,,,,,532.3917250070001,None,532.3917250070001,None,right,1,3.34436354200011,532.3917250070001,None,1,535.790434258,None,,,,,,,,,,,,,,,,,,,,,,,,,,,,,,,,,,,,,,,,,,,,,,,,,,,,,,,,,,,Friend 2,001,2021_Feb_23_2046,cal_abstract,2021.1.0,None,
,Cond,stimuli/Small/37.jpg,left,,,,,,,,,,,0,85,85,85,,,,,,,,,,,,,,,,,,,,,,,,,,,,,,,,,,,536.5402382320001,None,536.5402382320001,None,right,0,4.394630601000017,536.5402382320001,None,0,540.995525215,None,,,,,,,,,,,,,,,,,,,,,,,,,,,,,,,,,,,,,,,,,,,,,,,,,,,,,,,,,,,Friend 2,001,2021_Feb_23_2046,cal_abstract,2021.1.0,None,
,Fix1,stimuli/School/13.jpg,left,,,,,,,,,,,0,86,86,86,,,,,,,,,,,,,,,,,,,,,,,,,,,,,,,,,,,541.807565348,None,541.807565348,None,left,1,2.6020339140000033,541.807565348,None,1,544.4738098310002,None,,,,,,,,,,,,,,,,,,,,,,,,,,,,,,,,,,,,,,,,,,,,,,,,,,,,,,,,,,,Friend 2,001,2021_Feb_23_2046,cal_abstract,2021.1.0,None,
,Fix2,stimuli/Dangerous/14.jpg,right,,,,,,,,,,,0,87,87,87,,,,,,,,,,,,,,,,,,,,,,,,,,,,,,,,,,,545.270264903,None,545.270264903,None,right,1,3.9095801920000213,545.270264903,None,1,549.2392100540001,None,,,,,,,,,,,,,,,,,,,,,,,,,,,,,,,,,,,,,,,,,,,,,,,,,,,,,,,,,,,Friend 2,001,2021_Feb_23_2046,cal_abstract,2021.1.0,None,
,Cond,stimuli/Small/50.jpg,left,,,,,,,,,,,0,88,88,88,,,,,,,,,,,,,,,,,,,,,,,,,,,,,,,,,,,550.0235604050001,None,550.0235604050001,None,right,0,10.252368755999896,550.0235604050001,None,0,560.3430850730001,None,,,,,,,,,,,,,,,,,,,,,,,,,,,,,,,,,,,,,,,,,,,,,,,,,,,,,,,,,,,Friend 2,001,2021_Feb_23_2046,cal_abstract,2021.1.0,None,
,Fix2,stimuli/Dangerous/63.jpg,right,,,,,,,,,,,0,89,89,89,,,,,,,,,,,,,,,,,,,,,,,,,,,,,,,,,,,561.1241975270002,None,561.1241975270002,None,right,1,2.3669834889999493,561.1241975270002,None,1,563.5459102460002,None,,,,,,,,,,,,,,,,,,,,,,,,,,,,,,,,,,,,,,,,,,,,,,,,,,,,,,,,,,,Friend 2,001,2021_Feb_23_2046,cal_abstract,2021.1.0,None,
,Fix2,stimuli/Dangerous/0.jpg,right,,,,,,,,,,,0,90,90,90,,,,,,,,,,,,,,,,,,,,,,,,,,,,,,,,,,,564.3414126380001,None,564.3414126380001,None,right,1,2.311678556000061,564.3414126380001,None,1,566.6939982420001,None,,,,,,,,,,,,,,,,,,,,,,,,,,,,,,,,,,,,,,,,,,,,,,,,,,,,,,,,,,,Friend 2,001,2021_Feb_23_2046,cal_abstract,2021.1.0,None,
,Fix1,stimuli/School/32.jpg,left,,,,,,,,,,,0,91,91,91,,,,,,,,,,,,,,,,,,,,,,,,,,,,,,,,,,,567.4903934610002,None,567.4903934610002,None,left,1,2.7385961980000957,567.4903934610002,None,1,570.273108714,None,,,,,,,,,,,,,,,,,,,,,,,,,,,,,,,,,,,,,,,,,,,,,,,,,,,,,,,,,,,Friend 2,001,2021_Feb_23_2046,cal_abstract,2021.1.0,None,
,Fix1,stimuli/School/29.jpg,left,,,,,,,,,,,0,92,92,92,,,,,,,,,,,,,,,,,,,,,,,,,,,,,,,,,,,571.0745153700002,None,571.0745153700002,None,left,1,4.311740000999862,571.0745153700002,None,1,575.4434001650002,None,,,,,,,,,,,,,,,,,,,,,,,,,,,,,,,,,,,,,,,,,,,,,,,,,,,,,,,,,,,Friend 2,001,2021_Feb_23_2046,cal_abstract,2021.1.0,None,
,Cond,stimuli/Small/7.jpg,right,,,,,,,,,,,0,93,93,93,,,,,,,,,,,,,,,,,,,,,,,,,,,,,,,,,,,576.2389765740002,None,576.2389765740002,None,right,1,2.4752744920001533,576.2389765740002,None,1,578.739846787,None,,,,,,,,,,,,,,,,,,,,,,,,,,,,,,,,,,,,,,,,,,,,,,,,,,,,,,,,,,,Friend 2,001,2021_Feb_23_2046,cal_abstract,2021.1.0,None,
,Fix2,stimuli/Dangerous/19.jpg,right,,,,,,,,,,,0,94,94,94,,,,,,,,,,,,,,,,,,,,,,,,,,,,,,,,,,,579.5412837340002,None,579.5412837340002,None,right,1,3.730164021999826,579.5412837340002,None,1,583.2889005670002,None,,,,,,,,,,,,,,,,,,,,,,,,,,,,,,,,,,,,,,,,,,,,,,,,,,,,,,,,,,,Friend 2,001,2021_Feb_23_2046,cal_abstract,2021.1.0,None,
,Cond,stimuli/Small/51.jpg,left,,,,,,,,,,,0,95,95,95,,,,,,,,,,,,,,,,,,,,,,,,,,,,,,,,,,,584.0907728730001,None,584.0907728730001,None,left,1,2.0596206690001964,584.0907728730001,None,1,586.1723635950002,None,,,,,,,,,,,,,,,,,,,,,,,,,,,,,,,,,,,,,,,,,,,,,,,,,,,,,,,,,,,Friend 2,001,2021_Feb_23_2046,cal_abstract,2021.1.0,None,
,Fix2,stimuli/Dangerous/4.jpg,right,,,,,,,,,,,0,96,96,96,,,,,,,,,,,,,,,,,,,,,,,,,,,,,,,,,,,586.973433847,None,586.973433847,None,right,1,6.116367352999987,586.973433847,None,1,593.109481833,None,,,,,,,,,,,,,,,,,,,,,,,,,,,,,,,,,,,,,,,,,,,,,,,,,,,,,,,,,,,Friend 2,001,2021_Feb_23_2046,cal_abstract,2021.1.0,None,
,Cond,stimuli/Small/24.jpg,left,,,,,,,,,,,0,97,97,97,,,,,,,,,,,,,,,,,,,,,,,,,,,,,,,,,,,593.9239570000002,None,593.9239570000002,None,left,1,2.2852539909999905,593.9239570000002,None,1,596.258517811,None,,,,,,,,,,,,,,,,,,,,,,,,,,,,,,,,,,,,,,,,,,,,,,,,,,,,,,,,,,,Friend 2,001,2021_Feb_23_2046,cal_abstract,2021.1.0,None,
,Fix1,stimuli/School/58.jpg,left,,,,,,,,,,,0,98,98,98,,,,,,,,,,,,,,,,,,,,,,,,,,,,,,,,,,,597.0598734070002,None,597.0598734070002,None,left,1,2.4015581080000175,597.0598734070002,None,1,599.4898961490001,None,,,,,,,,,,,,,,,,,,,,,,,,,,,,,,,,,,,,,,,,,,,,,,,,,,,,,,,,,,,Friend 2,001,2021_Feb_23_2046,cal_abstract,2021.1.0,None,
,Cond,stimuli/Small/35.jpg,right,,,,,,,,,,,0,99,99,99,,,,,,,,,,,,,,,,,,,,,,,,,,,,,,,,,,,600.289785484,None,600.289785484,None,left,0,3.0782376370000293,600.289785484,None,0,603.3898917920001,None,,,,,,,,,,,,,,,,,,,,,,,,,,,,,,,,,,,,,,,,,,,,,,,,,,,,,,,,,,,Friend 2,001,2021_Feb_23_2046,cal_abstract,2021.1.0,None,
,Cond,stimuli/Small/40.jpg,left,,,,,,,,,,,0,100,100,100,,,,,,,,,,,,,,,,,,,,,,,,,,,,,,,,,,,604.190433833,None,604.190433833,None,left,1,2.6567723079999723,604.190433833,None,1,606.9069507160002,None,,,,,,,,,,,,,,,,,,,,,,,,,,,,,,,,,,,,,,,,,,,,,,,,,,,,,,,,,,,Friend 2,001,2021_Feb_23_2046,cal_abstract,2021.1.0,None,
,Cond,stimuli/Small/3.jpg,right,,,,,,,,,,,0,101,101,101,,,,,,,,,,,,,,,,,,,,,,,,,,,,,,,,,,,607.6557653970001,None,607.6557653970001,None,left,0,1.9282378430000335,607.6557653970001,None,0,609.6239804650002,None,,,,,,,,,,,,,,,,,,,,,,,,,,,,,,,,,,,,,,,,,,,,,,,,,,,,,,,,,,,Friend 2,001,2021_Feb_23_2046,cal_abstract,2021.1.0,None,
,Fix1,stimuli/School/38.jpg,left,,,,,,,,,,,0,102,102,102,,,,,,,,,,,,,,,,,,,,,,,,,,,,,,,,,,,610.4061723490001,None,610.4061723490001,None,right,0,33.77233590900005,610.4061723490001,None,0,644.20569262,None,,,,,,,,,,,,,,,,,,,,,,,,,,,,,,,,,,,,,,,,,,,,,,,,,,,,,,,,,,,Friend 2,001,2021_Feb_23_2046,cal_abstract,2021.1.0,None,
,Fix2,stimuli/Dangerous/26.jpg,right,,,,,,,,,,,0,103,103,103,,,,,,,,,,,,,,,,,,,,,,,,,,,,,,,,,,,644.9937712530002,None,644.9937712530002,None,right,1,6.290370768999992,644.9937712530002,None,1,651.3048489250002,None,,,,,,,,,,,,,,,,,,,,,,,,,,,,,,,,,,,,,,,,,,,,,,,,,,,,,,,,,,,Friend 2,001,2021_Feb_23_2046,cal_abstract,2021.1.0,None,
,Fix1,stimuli/School/51.jpg,left,,,,,,,,,,,0,104,104,104,,,,,,,,,,,,,,,,,,,,,,,,,,,,,,,,,,,652.15431607,None,652.15431607,None,left,1,5.588464290000047,652.15431607,None,1,657.7727780570001,None,,,,,,,,,,,,,,,,,,,,,,,,,,,,,,,,,,,,,,,,,,,,,,,,,,,,,,,,,,,Friend 2,001,2021_Feb_23_2046,cal_abstract,2021.1.0,None,
,Cond,stimuli/Small/56.jpg,right,,,,,,,,,,,0,105,105,105,,,,,,,,,,,,,,,,,,,,,,,,,,,,,,,,,,,658.5732973930001,None,658.5732973930001,None,left,0,2.9282037559999026,658.5732973930001,None,0,661.5593921330001,None,,,,,,,,,,,,,,,,,,,,,,,,,,,,,,,,,,,,,,,,,,,,,,,,,,,,,,,,,,,Friend 2,001,2021_Feb_23_2046,cal_abstract,2021.1.0,None,
,Cond,stimuli/Small/44.jpg,left,,,,,,,,,,,0,106,106,106,,,,,,,,,,,,,,,,,,,,,,,,,,,,,,,,,,,662.3741463990002,None,662.3741463990002,None,right,0,4.404086409999991,662.3741463990002,None,0,666.8059724340001,None,,,,,,,,,,,,,,,,,,,,,,,,,,,,,,,,,,,,,,,,,,,,,,,,,,,,,,,,,,,Friend 2,001,2021_Feb_23_2046,cal_abstract,2021.1.0,None,
,Fix2,stimuli/Dangerous/36.jpg,right,,,,,,,,,,,0,107,107,107,,,,,,,,,,,,,,,,,,,,,,,,,,,,,,,,,,,667.6257640760002,None,667.6257640760002,None,right,1,2.8748499349999292,667.6257640760002,None,1,670.5251352990001,None,,,,,,,,,,,,,,,,,,,,,,,,,,,,,,,,,,,,,,,,,,,,,,,,,,,,,,,,,,,Friend 2,001,2021_Feb_23_2046,cal_abstract,2021.1.0,None,
,Cond,stimuli/Small/54.jpg,left,,,,,,,,,,,0,108,108,108,,,,,,,,,,,,,,,,,,,,,,,,,,,,,,,,,,,671.338573623,None,671.338573623,None,left,1,3.556727651000074,671.338573623,None,1,674.9554426900002,None,,,,,,,,,,,,,,,,,,,,,,,,,,,,,,,,,,,,,,,,,,,,,,,,,,,,,,,,,,,Friend 2,001,2021_Feb_23_2046,cal_abstract,2021.1.0,None,
,Fix1,stimuli/School/0.jpg,left,,,,,,,,,,,0,109,109,109,,,,,,,,,,,,,,,,,,,,,,,,,,,,,,,,,,,675.7564029020002,None,675.7564029020002,None,right,0,3.2493286100000205,675.7564029020002,None,0,679.074815058,None,,,,,,,,,,,,,,,,,,,,,,,,,,,,,,,,,,,,,,,,,,,,,,,,,,,,,,,,,,,Friend 2,001,2021_Feb_23_2046,cal_abstract,2021.1.0,None,
,Fix1,stimuli/School/57.jpg,left,,,,,,,,,,,0,110,110,110,,,,,,,,,,,,,,,,,,,,,,,,,,,,,,,,,,,679.8725582660002,None,679.8725582660002,None,right,0,2.4571906359999502,679.8725582660002,None,0,682.3544512580002,None,,,,,,,,,,,,,,,,,,,,,,,,,,,,,,,,,,,,,,,,,,,,,,,,,,,,,,,,,,,Friend 2,001,2021_Feb_23_2046,cal_abstract,2021.1.0,None,
,Fix1,stimuli/School/24.jpg,left,,,,,,,,,,,0,111,111,111,,,,,,,,,,,,,,,,,,,,,,,,,,,,,,,,,,,683.155310415,None,683.155310415,None,left,1,4.339935792000006,683.155310415,None,1,687.537537806,None,,,,,,,,,,,,,,,,,,,,,,,,,,,,,,,,,,,,,,,,,,,,,,,,,,,,,,,,,,,Friend 2,001,2021_Feb_23_2046,cal_abstract,2021.1.0,None,
,Fix2,stimuli/Dangerous/45.jpg,right,,,,,,,,,,,0,112,112,112,,,,,,,,,,,,,,,,,,,,,,,,,,,,,,,,,,,688.3358115820001,None,688.3358115820001,None,right,1,2.063686213999972,688.3358115820001,None,1,690.456111229,None,,,,,,,,,,,,,,,,,,,,,,,,,,,,,,,,,,,,,,,,,,,,,,,,,,,,,,,,,,,Friend 2,001,2021_Feb_23_2046,cal_abstract,2021.1.0,None,
,Fix2,stimuli/Dangerous/40.jpg,right,,,,,,,,,,,0,113,113,113,,,,,,,,,,,,,,,,,,,,,,,,,,,,,,,,,,,691.2715038010001,None,691.2715038010001,None,right,1,2.417407490999949,691.2715038010001,None,1,693.738677389,None,,,,,,,,,,,,,,,,,,,,,,,,,,,,,,,,,,,,,,,,,,,,,,,,,,,,,,,,,,,Friend 2,001,2021_Feb_23_2046,cal_abstract,2021.1.0,None,
,Fix2,stimuli/Dangerous/39.jpg,right,,,,,,,,,,,0,114,114,114,,,,,,,,,,,,,,,,,,,,,,,,,,,,,,,,,,,694.5393968960002,None,694.5393968960002,None,right,1,2.4712092240001766,694.5393968960002,None,1,697.0948061270001,None,,,,,,,,,,,,,,,,,,,,,,,,,,,,,,,,,,,,,,,,,,,,,,,,,,,,,,,,,,,Friend 2,001,2021_Feb_23_2046,cal_abstract,2021.1.0,None,
,Cond,stimuli/Small/59.jpg,left,,,,,,,,,,,0,115,115,115,,,,,,,,,,,,,,,,,,,,,,,,,,,,,,,,,,,697.8724046140001,None,697.8724046140001,None,left,1,4.509254049999981,697.8724046140001,None,1,702.4383275550001,None,,,,,,,,,,,,,,,,,,,,,,,,,,,,,,,,,,,,,,,,,,,,,,,,,,,,,,,,,,,Friend 2,001,2021_Feb_23_2046,cal_abstract,2021.1.0,None,
,Fix2,stimuli/Dangerous/21.jpg,right,,,,,,,,,,,0,116,116,116,,,,,,,,,,,,,,,,,,,,,,,,,,,,,,,,,,,703.238716907,None,703.238716907,None,right,1,2.5653932420000274,703.238716907,None,1,705.820804553,None,,,,,,,,,,,,,,,,,,,,,,,,,,,,,,,,,,,,,,,,,,,,,,,,,,,,,,,,,,,Friend 2,001,2021_Feb_23_2046,cal_abstract,2021.1.0,None,
,Fix1,stimuli/School/15.jpg,left,,,,,,,,,,,0,117,117,117,,,,,,,,,,,,,,,,,,,,,,,,,,,,,,,,,,,706.6689737250001,None,706.6689737250001,None,left,1,4.050813525999956,706.6689737250001,None,1,710.777068026,None,,,,,,,,,,,,,,,,,,,,,,,,,,,,,,,,,,,,,,,,,,,,,,,,,,,,,,,,,,,Friend 2,001,2021_Feb_23_2046,cal_abstract,2021.1.0,None,
,Fix1,stimuli/School/5.jpg,left,,,,,,,,,,,0,118,118,118,,,,,,,,,,,,,,,,,,,,,,,,,,,,,,,,,,,711.5718299270002,None,711.5718299270002,None,left,1,2.9254092499998023,711.5718299270002,None,1,714.5545768730001,None,,,,,,,,,,,,,,,,,,,,,,,,,,,,,,,,,,,,,,,,,,,,,,,,,,,,,,,,,,,Friend 2,001,2021_Feb_23_2046,cal_abstract,2021.1.0,None,
,Fix1,stimuli/School/46.jpg,left,,,,,,,,,,,0,119,119,119,,,,,,,,,,,,,,,,,,,,,,,,,,,,,,,,,,,715.3400158020002,None,715.3400158020002,None,right,0,2.739281147000156,715.3400158020002,None,0,718.1375504,None,,,,,,,,,,,,,,,,,,,,,,,,,,,,,,,,,,,,,,,,,,,,,,,,,,,,,,,,,,,Friend 2,001,2021_Feb_23_2046,cal_abstract,2021.1.0,None,
,Fix1,stimuli/School/4.jpg,left,,,,,,,,,,,0,120,120,120,,,,,,,,,,,,,,,,,,,,,,,,,,,,,,,,,,,718.9044706280001,None,718.9044706280001,None,left,1,2.537040609999849,718.9044706280001,None,1,721.504774189,None,,,,,,,,,,,,,,,,,,,,,,,,,,,,,,,,,,,,,,,,,,,,,,,,,,,,,,,,,,,Friend 2,001,2021_Feb_23_2046,cal_abstract,2021.1.0,None,
,Fix2,stimuli/Dangerous/8.jpg,right,,,,,,,,,,,0,121,121,121,,,,,,,,,,,,,,,,,,,,,,,,,,,,,,,,,,,722.2542176660002,None,722.2542176660002,None,right,1,2.094339846000139,722.2542176660002,None,1,724.4105918910002,None,,,,,,,,,,,,,,,,,,,,,,,,,,,,,,,,,,,,,,,,,,,,,,,,,,,,,,,,,,,Friend 2,001,2021_Feb_23_2046,cal_abstract,2021.1.0,None,
,Fix2,stimuli/Dangerous/17.jpg,right,,,,,,,,,,,0,122,122,122,,,,,,,,,,,,,,,,,,,,,,,,,,,,,,,,,,,725.2214317780001,None,725.2214317780001,None,right,1,2.7281784920000973,725.2214317780001,None,1,728.004580278,None,,,,,,,,,,,,,,,,,,,,,,,,,,,,,,,,,,,,,,,,,,,,,,,,,,,,,,,,,,,Friend 2,001,2021_Feb_23_2046,cal_abstract,2021.1.0,None,
,Fix2,stimuli/Dangerous/1.jpg,right,,,,,,,,,,,0,123,123,123,,,,,,,,,,,,,,,,,,,,,,,,,,,,,,,,,,,728.8046128200001,None,728.8046128200001,None,right,1,4.751003651999781,728.8046128200001,None,1,733.6215463399999,None,,,,,,,,,,,,,,,,,,,,,,,,,,,,,,,,,,,,,,,,,,,,,,,,,,,,,,,,,,,Friend 2,001,2021_Feb_23_2046,cal_abstract,2021.1.0,None,
,Fix1,stimuli/School/3.jpg,left,,,,,,,,,,,0,124,124,124,,,,,,,,,,,,,,,,,,,,,,,,,,,,,,,,,,,734.3707562120003,None,734.3707562120003,None,left,1,4.335949051000171,734.3707562120003,None,1,738.740330568,None,,,,,,,,,,,,,,,,,,,,,,,,,,,,,,,,,,,,,,,,,,,,,,,,,,,,,,,,,,,Friend 2,001,2021_Feb_23_2046,cal_abstract,2021.1.0,None,
,Fix2,stimuli/Dangerous/37.jpg,right,,,,,,,,,,,0,125,125,125,,,,,,,,,,,,,,,,,,,,,,,,,,,,,,,,,,,739.555112178,None,739.555112178,None,right,1,2.3207741060000444,739.555112178,None,1,741.9059880240002,None,,,,,,,,,,,,,,,,,,,,,,,,,,,,,,,,,,,,,,,,,,,,,,,,,,,,,,,,,,,Friend 2,001,2021_Feb_23_2046,cal_abstract,2021.1.0,None,
,Fix1,stimuli/School/22.jpg,left,,,,,,,,,,,0,126,126,126,,,,,,,,,,,,,,,,,,,,,,,,,,,,,,,,,,,742.7046608380001,None,742.7046608380001,None,right,0,5.224915031999899,742.7046608380001,None,0,747.9717651640003,None,,,,,,,,,,,,,,,,,,,,,,,,,,,,,,,,,,,,,,,,,,,,,,,,,,,,,,,,,,,Friend 2,001,2021_Feb_23_2046,cal_abstract,2021.1.0,None,
,Fix2,stimuli/Dangerous/51.jpg,right,,,,,,,,,,,0,127,127,127,,,,,,,,,,,,,,,,,,,,,,,,,,,,,,,,,,,748.7552701620002,None,748.7552701620002,None,right,1,2.2718906819995937,748.7552701620002,None,1,751.0913674990002,None,,,,,,,,,,,,,,,,,,,,,,,,,,,,,,,,,,,,,,,,,,,,,,,,,,,,,,,,,,,Friend 2,001,2021_Feb_23_2046,cal_abstract,2021.1.0,None,
,Cond,stimuli/Small/6.jpg,left,,,,,,,,,,,0,128,128,128,,,,,,,,,,,,,,,,,,,,,,,,,,,,,,,,,,,751.857186576,None,751.857186576,None,left,1,6.39999230300009,751.857186576,None,1,758.3176529940001,None,,,,,,,,,,,,,,,,,,,,,,,,,,,,,,,,,,,,,,,,,,,,,,,,,,,,,,,,,,,Friend 2,001,2021_Feb_23_2046,cal_abstract,2021.1.0,None,
,Fix1,stimuli/School/12.jpg,left,,,,,,,,,,,0,129,129,129,,,,,,,,,,,,,,,,,,,,,,,,,,,,,,,,,,,759.0710174860001,None,759.0710174860001,None,left,1,2.610817193999992,759.0710174860001,None,1,761.719888701,None,,,,,,,,,,,,,,,,,,,,,,,,,,,,,,,,,,,,,,,,,,,,,,,,,,,,,,,,,,,Friend 2,001,2021_Feb_23_2046,cal_abstract,2021.1.0,None,
,Fix2,stimuli/Dangerous/13.jpg,right,,,,,,,,,,,0,130,130,130,,,,,,,,,,,,,,,,,,,,,,,,,,,,,,,,,,,762.5222685670001,None,762.5222685670001,None,right,1,2.635573418000149,762.5222685670001,None,1,765.1874137640002,None,,,,,,,,,,,,,,,,,,,,,,,,,,,,,,,,,,,,,,,,,,,,,,,,,,,,,,,,,,,Friend 2,001,2021_Feb_23_2046,cal_abstract,2021.1.0,None,
,Fix1,stimuli/School/49.jpg,left,,,,,,,,,,,0,131,131,131,,,,,,,,,,,,,,,,,,,,,,,,,,,,,,,,,,,765.9866584400002,None,765.9866584400002,None,left,1,2.941125533000104,765.9866584400002,None,1,768.9714866690001,None,,,,,,,,,,,,,,,,,,,,,,,,,,,,,,,,,,,,,,,,,,,,,,,,,,,,,,,,,,,Friend 2,001,2021_Feb_23_2046,cal_abstract,2021.1.0,None,
,Fix2,stimuli/Dangerous/2.jpg,right,,,,,,,,,,,0,132,132,132,,,,,,,,,,,,,,,,,,,,,,,,,,,,,,,,,,,769.7707018280003,None,769.7707018280003,None,right,1,2.386742492999929,769.7707018280003,None,1,772.2035183500002,None,,,,,,,,,,,,,,,,,,,,,,,,,,,,,,,,,,,,,,,,,,,,,,,,,,,,,,,,,,,Friend 2,001,2021_Feb_23_2046,cal_abstract,2021.1.0,None,
,Cond,stimuli/Small/52.jpg,left,,,,,,,,,,,0,133,133,133,,,,,,,,,,,,,,,,,,,,,,,,,,,,,,,,,,,773.0086631009999,None,773.0086631009999,None,left,1,2.936068632000115,773.0086631009999,None,1,775.9725105980001,None,,,,,,,,,,,,,,,,,,,,,,,,,,,,,,,,,,,,,,,,,,,,,,,,,,,,,,,,,,,Friend 2,001,2021_Feb_23_2046,cal_abstract,2021.1.0,None,
,Cond,stimuli/Small/27.jpg,right,,,,,,,,,,,0,134,134,134,,,,,,,,,,,,,,,,,,,,,,,,,,,,,,,,,,,776.7887666350002,None,776.7887666350002,None,left,0,10.471223248000115,776.7887666350002,None,0,787.2908278509999,None,,,,,,,,,,,,,,,,,,,,,,,,,,,,,,,,,,,,,,,,,,,,,,,,,,,,,,,,,,,Friend 2,001,2021_Feb_23_2046,cal_abstract,2021.1.0,None,
,Fix1,stimuli/School/41.jpg,left,,,,,,,,,,,0,135,135,135,,,,,,,,,,,,,,,,,,,,,,,,,,,,,,,,,,,788.0970319000003,None,788.0970319000003,None,left,1,2.3098217269998713,788.0970319000003,None,1,790.4390171109999,None,,,,,,,,,,,,,,,,,,,,,,,,,,,,,,,,,,,,,,,,,,,,,,,,,,,,,,,,,,,Friend 2,001,2021_Feb_23_2046,cal_abstract,2021.1.0,None,
,Fix1,stimuli/School/40.jpg,left,,,,,,,,,,,0,136,136,136,,,,,,,,,,,,,,,,,,,,,,,,,,,,,,,,,,,791.2541382270001,None,791.2541382270001,None,left,1,2.0946985139999015,791.2541382270001,None,1,793.3731463930003,None,,,,,,,,,,,,,,,,,,,,,,,,,,,,,,,,,,,,,,,,,,,,,,,,,,,,,,,,,,,Friend 2,001,2021_Feb_23_2046,cal_abstract,2021.1.0,None,
,Fix2,stimuli/Dangerous/57.jpg,right,,,,,,,,,,,0,137,137,137,,,,,,,,,,,,,,,,,,,,,,,,,,,,,,,,,,,794.1864276609999,None,794.1864276609999,None,right,1,1.9897088369998528,794.1864276609999,None,1,796.2040280000001,None,,,,,,,,,,,,,,,,,,,,,,,,,,,,,,,,,,,,,,,,,,,,,,,,,,,,,,,,,,,Friend 2,001,2021_Feb_23_2046,cal_abstract,2021.1.0,None,
,Cond,stimuli/Small/21.jpg,left,,,,,,,,,,,0,138,138,138,,,,,,,,,,,,,,,,,,,,,,,,,,,,,,,,,,,797.0199933869999,None,797.0199933869999,None,left,1,4.292943992999881,797.0199933869999,None,1,801.3701016519999,None,,,,,,,,,,,,,,,,,,,,,,,,,,,,,,,,,,,,,,,,,,,,,,,,,,,,,,,,,,,Friend 2,001,2021_Feb_23_2046,cal_abstract,2021.1.0,None,
,Cond,stimuli/Small/48.jpg,right,,,,,,,,,,,0,139,139,139,,,,,,,,,,,,,,,,,,,,,,,,,,,,,,,,,,,802.1208002870003,None,802.1208002870003,None,left,0,2.459986193000077,802.1208002870003,None,0,804.6047917599999,None,,,,,,,,,,,,,,,,,,,,,,,,,,,,,,,,,,,,,,,,,,,,,,,,,,,,,,,,,,,Friend 2,001,2021_Feb_23_2046,cal_abstract,2021.1.0,None,
,Fix2,stimuli/Dangerous/12.jpg,right,,,,,,,,,,,0,140,140,140,,,,,,,,,,,,,,,,,,,,,,,,,,,,,,,,,,,805.4191691690003,None,805.4191691690003,None,right,1,3.70774458599999,805.4191691690003,None,1,809.1879262299999,None,,,,,,,,,,,,,,,,,,,,,,,,,,,,,,,,,,,,,,,,,,,,,,,,,,,,,,,,,,,Friend 2,001,2021_Feb_23_2046,cal_abstract,2021.1.0,None,
,Fix1,stimuli/School/2.jpg,left,,,,,,,,,,,0,141,141,141,,,,,,,,,,,,,,,,,,,,,,,,,,,,,,,,,,,809.938373686,None,809.938373686,None,left,1,2.63561358700008,809.938373686,None,1,812.6363747690002,None,,,,,,,,,,,,,,,,,,,,,,,,,,,,,,,,,,,,,,,,,,,,,,,,,,,,,,,,,,,Friend 2,001,2021_Feb_23_2046,cal_abstract,2021.1.0,None,
,Fix1,stimuli/School/16.jpg,left,,,,,,,,,,,0,142,142,142,,,,,,,,,,,,,,,,,,,,,,,,,,,,,,,,,,,813.4535453480003,None,813.4535453480003,None,right,0,3.24882171299987,813.4535453480003,None,0,816.755476494,None,,,,,,,,,,,,,,,,,,,,,,,,,,,,,,,,,,,,,,,,,,,,,,,,,,,,,,,,,,,Friend 2,001,2021_Feb_23_2046,cal_abstract,2021.1.0,None,
,Fix2,stimuli/Dangerous/23.jpg,right,,,,,,,,,,,0,143,143,143,,,,,,,,,,,,,,,,,,,,,,,,,,,,,,,,,,,817.5547273330003,None,817.5547273330003,None,right,1,2.5554824999999255,817.5547273330003,None,1,820.1711934680002,None,,,,,,,,,,,,,,,,,,,,,,,,,,,,,,,,,,,,,,,,,,,,,,,,,,,,,,,,,,,Friend 2,001,2021_Feb_23_2046,cal_abstract,2021.1.0,None,
,Fix2,stimuli/Dangerous/5.jpg,right,,,,,,,,,,,0,144,144,144,,,,,,,,,,,,,,,,,,,,,,,,,,,,,,,,,,,820.971288279,None,820.971288279,None,right,1,2.3977130260000195,820.971288279,None,1,823.3882596990002,None,,,,,,,,,,,,,,,,,,,,,,,,,,,,,,,,,,,,,,,,,,,,,,,,,,,,,,,,,,,Friend 2,001,2021_Feb_23_2046,cal_abstract,2021.1.0,None,
,Fix2,stimuli/Dangerous/56.jpg,right,,,,,,,,,,,0,145,145,145,,,,,,,,,,,,,,,,,,,,,,,,,,,,,,,,,,,824.2040445800003,None,824.2040445800003,None,right,1,1.8369685930001651,824.2040445800003,None,1,826.102630119,None,,,,,,,,,,,,,,,,,,,,,,,,,,,,,,,,,,,,,,,,,,,,,,,,,,,,,,,,,,,Friend 2,001,2021_Feb_23_2046,cal_abstract,2021.1.0,None,
,Cond,stimuli/Small/22.jpg,left,,,,,,,,,,,0,146,146,146,,,,,,,,,,,,,,,,,,,,,,,,,,,,,,,,,,,826.853304231,None,826.853304231,None,left,1,2.732504467000126,826.853304231,None,1,829.6535337119999,None,,,,,,,,,,,,,,,,,,,,,,,,,,,,,,,,,,,,,,,,,,,,,,,,,,,,,,,,,,,Friend 2,001,2021_Feb_23_2046,cal_abstract,2021.1.0,None,
,Fix1,stimuli/School/7.jpg,left,,,,,,,,,,,0,147,147,147,,,,,,,,,,,,,,,,,,,,,,,,,,,,,,,,,,,830.4539847370002,None,830.4539847370002,None,left,1,5.462077157000294,830.4539847370002,None,1,835.9364553580003,None,,,,,,,,,,,,,,,,,,,,,,,,,,,,,,,,,,,,,,,,,,,,,,,,,,,,,,,,,,,Friend 2,001,2021_Feb_23_2046,cal_abstract,2021.1.0,None,
,Fix1,stimuli/School/43.jpg,left,,,,,,,,,,,0,148,148,148,,,,,,,,,,,,,,,,,,,,,,,,,,,,,,,,,,,836.737750844,None,836.737750844,None,right,0,8.154372450999745,836.737750844,None,0,844.9381676030002,None,,,,,,,,,,,,,,,,,,,,,,,,,,,,,,,,,,,,,,,,,,,,,,,,,,,,,,,,,,,Friend 2,001,2021_Feb_23_2046,cal_abstract,2021.1.0,None,
,Fix2,stimuli/Dangerous/27.jpg,right,,,,,,,,,,,0,149,149,149,,,,,,,,,,,,,,,,,,,,,,,,,,,,,,,,,,,845.7516997150001,None,845.7516997150001,None,right,1,2.3934348599996156,845.7516997150001,None,1,848.2033445659999,None,,,,,,,,,,,,,,,,,,,,,,,,,,,,,,,,,,,,,,,,,,,,,,,,,,,,,,,,,,,Friend 2,001,2021_Feb_23_2046,cal_abstract,2021.1.0,None,
,,,,,,,,,,,,,,,,,,,,,,,,,,,,,,,,,,,,,,,,,,,,,,,,,,,,,,,,,,,,,,,,848.9524486350001,None,c,3.349999897000089,848.9524486350001,None,,,,,,,,,,,,,,,,,,,,,,,,,,,,,,,,,,,,,,,,,,,,,,,,,,,,,Friend 2,001,2021_Feb_23_2046,cal_abstract,2021.1.0,None,
,,,,,,,,,,,,,,,,,,,,,,,,,,,,,,,,,,,,,,,,,,,,,,,,,,,,,,,,,,,,,,,,,,,,,,852.3707326540002,None,852.3707326540002,None,s,2.2146768679999695,852.3707326540002,None,,,,,,,,,,,,,,,,,,,,,,,,,,,,,,,,,,,,,,,,,,,,,Friend 2,001,2021_Feb_23_2046,cal_abstract,2021.1.0,None,
,,,,Fix2,stimuli/Healthy/38.jpg,left,,,,,,,,,,,,0,0,0,0,,,,,,,,,,,,,,,,,,,,,,,,,,,,,,,,,,,,,,,,1,,,,,,,,,,,,,,,,,854.7095117960002,None,854.7095117960002,None,left,1,7.249174707999828,854.7095117960002,None,861.9903177250003,None,,,,,,,,,,,,,,,,,,,,,,,,,,,,,,,,,,Friend 2,001,2021_Feb_23_2046,cal_abstract,2021.1.0,None,
,,,,Fix1,stimuli/Old/36.jpg,right,,,,,,,,,,,,0,1,1,1,,,,,,,,,,,,,,,,,,,,,,,,,,,,,,,,,,,,,,,,1,,,,,,,,,,,,,,,,,862.8078500770002,None,862.8078500770002,None,right,1,2.6630195099996854,862.8078500770002,None,865.5198755790002,None,,,,,,,,,,,,,,,,,,,,,,,,,,,,,,,,,,Friend 2,001,2021_Feb_23_2046,cal_abstract,2021.1.0,None,
,,,,Cond,stimuli/Wealth/56.jpg,left,,,,,,,,,,,,0,2,2,2,,,,,,,,,,,,,,,,,,,,,,,,,,,,,,,,,,,,,,,,0,,,,,,,,,,,,,,,,,866.3370024220003,None,866.3370024220003,None,right,0,4.294636674999765,866.3370024220003,None,870.653018079,None,,,,,,,,,,,,,,,,,,,,,,,,,,,,,,,,,,Friend 2,001,2021_Feb_23_2046,cal_abstract,2021.1.0,None,
,,,,Fix1,stimuli/Old/58.jpg,right,,,,,,,,,,,,0,3,3,3,,,,,,,,,,,,,,,,,,,,,,,,,,,,,,,,,,,,,,,,1,,,,,,,,,,,,,,,,,871.5211163060003,None,871.5211163060003,None,right,1,2.824154344999897,871.5211163060003,None,874.4211874590001,None,,,,,,,,,,,,,,,,,,,,,,,,,,,,,,,,,,Friend 2,001,2021_Feb_23_2046,cal_abstract,2021.1.0,None,
,,,,Fix2,stimuli/Healthy/67.jpg,left,,,,,,,,,,,,0,4,4,4,,,,,,,,,,,,,,,,,,,,,,,,,,,,,,,,,,,,,,,,1,,,,,,,,,,,,,,,,,875.18663849,None,875.18663849,None,left,1,2.714801544000238,875.18663849,None,877.9531472540002,None,,,,,,,,,,,,,,,,,,,,,,,,,,,,,,,,,,Friend 2,001,2021_Feb_23_2046,cal_abstract,2021.1.0,None,
,,,,Fix1,stimuli/Old/40.jpg,right,,,,,,,,,,,,0,5,5,5,,,,,,,,,,,,,,,,,,,,,,,,,,,,,,,,,,,,,,,,0,,,,,,,,,,,,,,,,,878.7711131290002,None,878.7711131290002,None,left,0,3.080164785999841,878.7711131290002,None,881.9021770530003,None,,,,,,,,,,,,,,,,,,,,,,,,,,,,,,,,,,Friend 2,001,2021_Feb_23_2046,cal_abstract,2021.1.0,None,
,,,,Fix1,stimuli/Old/55.jpg,right,,,,,,,,,,,,0,6,6,6,,,,,,,,,,,,,,,,,,,,,,,,,,,,,,,,,,,,,,,,0,,,,,,,,,,,,,,,,,882.686528494,None,882.686528494,None,left,0,3.898189393999928,882.686528494,None,886.6525920449999,None,,,,,,,,,,,,,,,,,,,,,,,,,,,,,,,,,,Friend 2,001,2021_Feb_23_2046,cal_abstract,2021.1.0,None,
,,,,Fix2,stimuli/Healthy/37.jpg,left,,,,,,,,,,,,0,7,7,7,,,,,,,,,,,,,,,,,,,,,,,,,,,,,,,,,,,,,,,,1,,,,,,,,,,,,,,,,,887.453984064,None,887.453984064,None,left,1,3.5229947119996723,887.453984064,None,891.003738631,None,,,,,,,,,,,,,,,,,,,,,,,,,,,,,,,,,,Friend 2,001,2021_Feb_23_2046,cal_abstract,2021.1.0,None,
,,,,Fix2,stimuli/Healthy/13.jpg,left,,,,,,,,,,,,0,8,8,8,,,,,,,,,,,,,,,,,,,,,,,,,,,,,,,,,,,,,,,,1,,,,,,,,,,,,,,,,,891.8196415890002,None,891.8196415890002,None,left,1,4.4460315910000645,891.8196415890002,None,896.2858004220002,None,,,,,,,,,,,,,,,,,,,,,,,,,,,,,,,,,,Friend 2,001,2021_Feb_23_2046,cal_abstract,2021.1.0,None,
,,,,Fix2,stimuli/Healthy/10.jpg,left,,,,,,,,,,,,0,9,9,9,,,,,,,,,,,,,,,,,,,,,,,,,,,,,,,,,,,,,,,,1,,,,,,,,,,,,,,,,,897.0702518590001,None,897.0702518590001,None,left,1,2.8330652570002712,897.0702518590001,None,899.934952741,None,,,,,,,,,,,,,,,,,,,,,,,,,,,,,,,,,,Friend 2,001,2021_Feb_23_2046,cal_abstract,2021.1.0,None,
,,,,Cond,stimuli/Wealth/5.jpg,right,,,,,,,,,,,,0,10,10,10,,,,,,,,,,,,,,,,,,,,,,,,,,,,,,,,,,,,,,,,0,,,,,,,,,,,,,,,,,900.735466132,None,900.735466132,None,left,0,15.137810413000352,900.735466132,None,915.919683565,None,,,,,,,,,,,,,,,,,,,,,,,,,,,,,,,,,,Friend 2,001,2021_Feb_23_2046,cal_abstract,2021.1.0,None,
,,,,Fix2,stimuli/Healthy/1.jpg,left,,,,,,,,,,,,0,11,11,11,,,,,,,,,,,,,,,,,,,,,,,,,,,,,,,,,,,,,,,,0,,,,,,,,,,,,,,,,,916.7125326650003,None,916.7125326650003,None,right,0,2.8727614159997756,916.7125326650003,None,919.6531270260002,None,,,,,,,,,,,,,,,,,,,,,,,,,,,,,,,,,,Friend 2,001,2021_Feb_23_2046,cal_abstract,2021.1.0,None,
,,,,Fix1,stimuli/Old/20.jpg,right,,,,,,,,,,,,0,12,12,12,,,,,,,,,,,,,,,,,,,,,,,,,,,,,,,,,,,,,,,,1,,,,,,,,,,,,,,,,,920.469542795,None,920.469542795,None,right,1,2.582666238999991,920.469542795,None,923.1009470570002,None,,,,,,,,,,,,,,,,,,,,,,,,,,,,,,,,,,Friend 2,001,2021_Feb_23_2046,cal_abstract,2021.1.0,None,
,,,,Fix2,stimuli/Healthy/4.jpg,left,,,,,,,,,,,,0,13,13,13,,,,,,,,,,,,,,,,,,,,,,,,,,,,,,,,,,,,,,,,1,,,,,,,,,,,,,,,,,923.9356859019999,None,923.9356859019999,None,left,1,3.4983516960000998,923.9356859019999,None,927.4554437669999,None,,,,,,,,,,,,,,,,,,,,,,,,,,,,,,,,,,Friend 2,001,2021_Feb_23_2046,cal_abstract,2021.1.0,None,
,,,,Cond,stimuli/Wealth/41.jpg,right,,,,,,,,,,,,0,14,14,14,,,,,,,,,,,,,,,,,,,,,,,,,,,,,,,,,,,,,,,,1,,,,,,,,,,,,,,,,,928.2725593949999,None,928.2725593949999,None,right,1,14.163043069000196,928.2725593949999,None,942.5019269449999,None,,,,,,,,,,,,,,,,,,,,,,,,,,,,,,,,,,Friend 2,001,2021_Feb_23_2046,cal_abstract,2021.1.0,None,
,,,,Cond,stimuli/Wealth/57.jpg,left,,,,,,,,,,,,0,15,15,15,,,,,,,,,,,,,,,,,,,,,,,,,,,,,,,,,,,,,,,,1,,,,,,,,,,,,,,,,,943.2522067740001,None,943.2522067740001,None,left,1,3.0449733810000907,943.2522067740001,None,946.3362689979999,None,,,,,,,,,,,,,,,,,,,,,,,,,,,,,,,,,,Friend 2,001,2021_Feb_23_2046,cal_abstract,2021.1.0,None,
,,,,Fix2,stimuli/Healthy/58.jpg,left,,,,,,,,,,,,0,16,16,16,,,,,,,,,,,,,,,,,,,,,,,,,,,,,,,,,,,,,,,,1,,,,,,,,,,,,,,,,,947.1349899530001,None,947.1349899530001,None,left,1,3.452464092000355,947.1349899530001,None,950.6516524500003,None,,,,,,,,,,,,,,,,,,,,,,,,,,,,,,,,,,Friend 2,001,2021_Feb_23_2046,cal_abstract,2021.1.0,None,
,,,,Fix1,stimuli/Old/49.jpg,right,,,,,,,,,,,,0,17,17,17,,,,,,,,,,,,,,,,,,,,,,,,,,,,,,,,,,,,,,,,1,,,,,,,,,,,,,,,,,951.467745125,None,951.467745125,None,right,1,2.3561190130003524,951.467745125,None,953.852008807,None,,,,,,,,,,,,,,,,,,,,,,,,,,,,,,,,,,Friend 2,001,2021_Feb_23_2046,cal_abstract,2021.1.0,None,
,,,,Fix1,stimuli/Old/29.jpg,right,,,,,,,,,,,,0,18,18,18,,,,,,,,,,,,,,,,,,,,,,,,,,,,,,,,,,,,,,,,1,,,,,,,,,,,,,,,,,954.6509659789999,None,954.6509659789999,None,right,1,2.4763581860001977,954.6509659789999,None,957.170709984,None,,,,,,,,,,,,,,,,,,,,,,,,,,,,,,,,,,Friend 2,001,2021_Feb_23_2046,cal_abstract,2021.1.0,None,
,,,,Cond,stimuli/Wealth/26.jpg,left,,,,,,,,,,,,0,19,19,19,,,,,,,,,,,,,,,,,,,,,,,,,,,,,,,,,,,,,,,,1,,,,,,,,,,,,,,,,,958.0014704360001,None,958.0014704360001,None,left,1,2.8527932930001043,958.0014704360001,None,960.9188662800002,None,,,,,,,,,,,,,,,,,,,,,,,,,,,,,,,,,,Friend 2,001,2021_Feb_23_2046,cal_abstract,2021.1.0,None,
,,,,Fix1,stimuli/Old/37.jpg,right,,,,,,,,,,,,0,20,20,20,,,,,,,,,,,,,,,,,,,,,,,,,,,,,,,,,,,,,,,,1,,,,,,,,,,,,,,,,,961.7186128140002,None,961.7186128140002,None,right,1,2.097362039000018,961.7186128140002,None,963.8510276840002,None,,,,,,,,,,,,,,,,,,,,,,,,,,,,,,,,,,Friend 2,001,2021_Feb_23_2046,cal_abstract,2021.1.0,None,
,,,,Fix2,stimuli/Healthy/42.jpg,left,,,,,,,,,,,,0,21,21,21,,,,,,,,,,,,,,,,,,,,,,,,,,,,,,,,,,,,,,,,1,,,,,,,,,,,,,,,,,964.6348095840003,None,964.6348095840003,None,left,1,2.3224051840002176,964.6348095840003,None,967.035947376,None,,,,,,,,,,,,,,,,,,,,,,,,,,,,,,,,,,Friend 2,001,2021_Feb_23_2046,cal_abstract,2021.1.0,None,
,,,,Fix2,stimuli/Healthy/55.jpg,left,,,,,,,,,,,,0,22,22,22,,,,,,,,,,,,,,,,,,,,,,,,,,,,,,,,,,,,,,,,1,,,,,,,,,,,,,,,,,967.8518067580003,None,967.8518067580003,None,left,1,2.2269490899998345,967.8518067580003,None,970.1344878620002,None,,,,,,,,,,,,,,,,,,,,,,,,,,,,,,,,,,Friend 2,001,2021_Feb_23_2046,cal_abstract,2021.1.0,None,
,,,,Fix1,stimuli/Old/15.jpg,right,,,,,,,,,,,,0,23,23,23,,,,,,,,,,,,,,,,,,,,,,,,,,,,,,,,,,,,,,,,1,,,,,,,,,,,,,,,,,970.8839810990003,None,970.8839810990003,None,right,1,2.214695591000236,970.8839810990003,None,973.1338049999999,None,,,,,,,,,,,,,,,,,,,,,,,,,,,,,,,,,,Friend 2,001,2021_Feb_23_2046,cal_abstract,2021.1.0,None,
,,,,Fix2,stimuli/Healthy/8.jpg,left,,,,,,,,,,,,0,24,24,24,,,,,,,,,,,,,,,,,,,,,,,,,,,,,,,,,,,,,,,,1,,,,,,,,,,,,,,,,,973.9009528920001,None,973.9009528920001,None,left,1,2.089672098000392,973.9009528920001,None,976.0684662530002,None,,,,,,,,,,,,,,,,,,,,,,,,,,,,,,,,,,Friend 2,001,2021_Feb_23_2046,cal_abstract,2021.1.0,None,
,,,,Cond,stimuli/Wealth/17.jpg,right,,,,,,,,,,,,0,25,25,25,,,,,,,,,,,,,,,,,,,,,,,,,,,,,,,,,,,,,,,,0,,,,,,,,,,,,,,,,,976.825208667,None,976.825208667,None,left,0,3.300120600000355,976.825208667,None,980.1676081770001,None,,,,,,,,,,,,,,,,,,,,,,,,,,,,,,,,,,Friend 2,001,2021_Feb_23_2046,cal_abstract,2021.1.0,None,
,,,,Cond,stimuli/Wealth/27.jpg,left,,,,,,,,,,,,0,26,26,26,,,,,,,,,,,,,,,,,,,,,,,,,,,,,,,,,,,,,,,,0,,,,,,,,,,,,,,,,,980.9728856690003,None,980.9728856690003,None,right,0,2.1818947980000303,980.9728856690003,None,983.1833293340001,None,,,,,,,,,,,,,,,,,,,,,,,,,,,,,,,,,,Friend 2,001,2021_Feb_23_2046,cal_abstract,2021.1.0,None,
,,,,Cond,stimuli/Wealth/0.jpg,right,,,,,,,,,,,,0,27,27,27,,,,,,,,,,,,,,,,,,,,,,,,,,,,,,,,,,,,,,,,0,,,,,,,,,,,,,,,,,983.984582389,None,983.984582389,None,left,0,6.863679162000153,983.984582389,None,990.8843382550003,None,,,,,,,,,,,,,,,,,,,,,,,,,,,,,,,,,,Friend 2,001,2021_Feb_23_2046,cal_abstract,2021.1.0,None,
,,,,Fix2,stimuli/Healthy/5.jpg,left,,,,,,,,,,,,0,28,28,28,,,,,,,,,,,,,,,,,,,,,,,,,,,,,,,,,,,,,,,,1,,,,,,,,,,,,,,,,,991.6810528300002,None,991.6810528300002,None,left,1,2.2981287580000753,991.6810528300002,None,994.0023535949999,None,,,,,,,,,,,,,,,,,,,,,,,,,,,,,,,,,,Friend 2,001,2021_Feb_23_2046,cal_abstract,2021.1.0,None,
,,,,Fix2,stimuli/Healthy/29.jpg,left,,,,,,,,,,,,0,29,29,29,,,,,,,,,,,,,,,,,,,,,,,,,,,,,,,,,,,,,,,,1,,,,,,,,,,,,,,,,,994.7997889200001,None,994.7997889200001,None,left,1,1.7812120929997945,994.7997889200001,None,996.6167767470001,None,,,,,,,,,,,,,,,,,,,,,,,,,,,,,,,,,,Friend 2,001,2021_Feb_23_2046,cal_abstract,2021.1.0,None,
,,,,Cond,stimuli/Wealth/53.jpg,right,,,,,,,,,,,,0,30,30,30,,,,,,,,,,,,,,,,,,,,,,,,,,,,,,,,,,,,,,,,1,,,,,,,,,,,,,,,,,997.4182876079999,None,997.4182876079999,None,right,1,2.7469435139996676,997.4182876079999,None,1000.1839431130002,None,,,,,,,,,,,,,,,,,,,,,,,,,,,,,,,,,,Friend 2,001,2021_Feb_23_2046,cal_abstract,2021.1.0,None,
,,,,Fix1,stimuli/Old/2.jpg,right,,,,,,,,,,,,0,31,31,31,,,,,,,,,,,,,,,,,,,,,,,,,,,,,,,,,,,,,,,,1,,,,,,,,,,,,,,,,,1000.9846029800001,None,1000.9846029800001,None,right,1,2.3030448770000476,1000.9846029800001,None,1003.3510685270003,None,,,,,,,,,,,,,,,,,,,,,,,,,,,,,,,,,,Friend 2,001,2021_Feb_23_2046,cal_abstract,2021.1.0,None,
,,,,Fix2,stimuli/Healthy/7.jpg,left,,,,,,,,,,,,0,32,32,32,,,,,,,,,,,,,,,,,,,,,,,,,,,,,,,,,,,,,,,,1,,,,,,,,,,,,,,,,,1004.1339337610002,None,1004.1339337610002,None,left,1,2.265654684999845,1004.1339337610002,None,1006.418024174,None,,,,,,,,,,,,,,,,,,,,,,,,,,,,,,,,,,Friend 2,001,2021_Feb_23_2046,cal_abstract,2021.1.0,None,
,,,,Fix1,stimuli/Old/7.jpg,right,,,,,,,,,,,,0,33,33,33,,,,,,,,,,,,,,,,,,,,,,,,,,,,,,,,,,,,,,,,1,,,,,,,,,,,,,,,,,1007.1842903510001,None,1007.1842903510001,None,right,1,2.3332771300001696,1007.1842903510001,None,1009.5832344089999,None,,,,,,,,,,,,,,,,,,,,,,,,,,,,,,,,,,Friend 2,001,2021_Feb_23_2046,cal_abstract,2021.1.0,None,
,,,,Cond,stimuli/Wealth/10.jpg,left,,,,,,,,,,,,0,34,34,34,,,,,,,,,,,,,,,,,,,,,,,,,,,,,,,,,,,,,,,,0,,,,,,,,,,,,,,,,,1010.3513673299999,None,1010.3513673299999,None,right,0,3.709339911999905,1010.3513673299999,None,1014.116602434,None,,,,,,,,,,,,,,,,,,,,,,,,,,,,,,,,,,Friend 2,001,2021_Feb_23_2046,cal_abstract,2021.1.0,None,
,,,,Fix2,stimuli/Healthy/68.jpg,left,,,,,,,,,,,,0,35,35,35,,,,,,,,,,,,,,,,,,,,,,,,,,,,,,,,,,,,,,,,1,,,,,,,,,,,,,,,,,1014.918101832,None,1014.918101832,None,left,1,2.3725606440002593,1014.918101832,None,1017.3498734530003,None,,,,,,,,,,,,,,,,,,,,,,,,,,,,,,,,,,Friend 2,001,2021_Feb_23_2046,cal_abstract,2021.1.0,None,
,,,,Cond,stimuli/Wealth/24.jpg,right,,,,,,,,,,,,0,36,36,36,,,,,,,,,,,,,,,,,,,,,,,,,,,,,,,,,,,,,,,,0,,,,,,,,,,,,,,,,,1018.1517660120003,None,1018.1517660120003,None,left,0,2.0404484499999853,1018.1517660120003,None,1020.2504473620002,None,,,,,,,,,,,,,,,,,,,,,,,,,,,,,,,,,,Friend 2,001,2021_Feb_23_2046,cal_abstract,2021.1.0,None,
,,,,Cond,stimuli/Wealth/12.jpg,left,,,,,,,,,,,,0,37,37,37,,,,,,,,,,,,,,,,,,,,,,,,,,,,,,,,,,,,,,,,1,,,,,,,,,,,,,,,,,1021.0516401489999,None,1021.0516401489999,None,left,1,4.10479489699992,1021.0516401489999,None,1025.1838516460002,None,,,,,,,,,,,,,,,,,,,,,,,,,,,,,,,,,,Friend 2,001,2021_Feb_23_2046,cal_abstract,2021.1.0,None,
,,,,Fix2,stimuli/Healthy/20.jpg,left,,,,,,,,,,,,0,38,38,38,,,,,,,,,,,,,,,,,,,,,,,,,,,,,,,,,,,,,,,,1,,,,,,,,,,,,,,,,,1025.9842897000003,None,1025.9842897000003,None,left,1,7.857551510000121,1025.9842897000003,None,1033.8666617520003,None,,,,,,,,,,,,,,,,,,,,,,,,,,,,,,,,,,Friend 2,001,2021_Feb_23_2046,cal_abstract,2021.1.0,None,
,,,,Fix2,stimuli/Healthy/44.jpg,left,,,,,,,,,,,,0,39,39,39,,,,,,,,,,,,,,,,,,,,,,,,,,,,,,,,,,,,,,,,1,,,,,,,,,,,,,,,,,1034.66890203,None,1034.66890203,None,left,1,2.799817691000044,1034.66890203,None,1037.5015851940002,None,,,,,,,,,,,,,,,,,,,,,,,,,,,,,,,,,,Friend 2,001,2021_Feb_23_2046,cal_abstract,2021.1.0,None,
,,,,Fix2,stimuli/Healthy/27.jpg,left,,,,,,,,,,,,0,40,40,40,,,,,,,,,,,,,,,,,,,,,,,,,,,,,,,,,,,,,,,,1,,,,,,,,,,,,,,,,,1038.3178781410002,None,1038.3178781410002,None,left,1,2.5692490719998204,1038.3178781410002,None,1040.9333878020002,None,,,,,,,,,,,,,,,,,,,,,,,,,,,,,,,,,,Friend 2,001,2021_Feb_23_2046,cal_abstract,2021.1.0,None,
,,,,Fix2,stimuli/Healthy/59.jpg,left,,,,,,,,,,,,0,41,41,41,,,,,,,,,,,,,,,,,,,,,,,,,,,,,,,,,,,,,,,,1,,,,,,,,,,,,,,,,,1041.734912763,None,1041.734912763,None,left,1,3.9284283940000932,1041.734912763,None,1045.716393522,None,,,,,,,,,,,,,,,,,,,,,,,,,,,,,,,,,,Friend 2,001,2021_Feb_23_2046,cal_abstract,2021.1.0,None,
,,,,Fix1,stimuli/Old/46.jpg,right,,,,,,,,,,,,0,42,42,42,,,,,,,,,,,,,,,,,,,,,,,,,,,,,,,,,,,,,,,,1,,,,,,,,,,,,,,,,,1046.5185940800002,None,1046.5185940800002,None,right,1,5.484139379000226,1046.5185940800002,None,1052.130400432,None,,,,,,,,,,,,,,,,,,,,,,,,,,,,,,,,,,Friend 2,001,2021_Feb_23_2046,cal_abstract,2021.1.0,None,
,,,,Fix2,stimuli/Healthy/39.jpg,left,,,,,,,,,,,,0,43,43,43,,,,,,,,,,,,,,,,,,,,,,,,,,,,,,,,,,,,,,,,1,,,,,,,,,,,,,,,,,1052.8994164310002,None,1052.8994164310002,None,left,1,2.1030645730002107,1052.8994164310002,None,1055.050933691,None,,,,,,,,,,,,,,,,,,,,,,,,,,,,,,,,,,Friend 2,001,2021_Feb_23_2046,cal_abstract,2021.1.0,None,
,,,,Fix1,stimuli/Old/38.jpg,right,,,,,,,,,,,,0,44,44,44,,,,,,,,,,,,,,,,,,,,,,,,,,,,,,,,,,,,,,,,1,,,,,,,,,,,,,,,,,1055.8503574740002,None,1055.8503574740002,None,right,1,2.923130022999885,1055.8503574740002,None,1058.80076985,None,,,,,,,,,,,,,,,,,,,,,,,,,,,,,,,,,,Friend 2,001,2021_Feb_23_2046,cal_abstract,2021.1.0,None,
,,,,Fix2,stimuli/Healthy/66.jpg,left,,,,,,,,,,,,0,45,45,45,,,,,,,,,,,,,,,,,,,,,,,,,,,,,,,,,,,,,,,,1,,,,,,,,,,,,,,,,,1059.6031607740001,None,1059.6031607740001,None,left,1,2.425762384000336,1059.6031607740001,None,1062.08271736,None,,,,,,,,,,,,,,,,,,,,,,,,,,,,,,,,,,Friend 2,001,2021_Feb_23_2046,cal_abstract,2021.1.0,None,
,,,,Fix1,stimuli/Old/17.jpg,right,,,,,,,,,,,,0,46,46,46,,,,,,,,,,,,,,,,,,,,,,,,,,,,,,,,,,,,,,,,1,,,,,,,,,,,,,,,,,1062.850541833,None,1062.850541833,None,right,1,2.313605900999846,1062.850541833,None,1065.200269562,None,,,,,,,,,,,,,,,,,,,,,,,,,,,,,,,,,,Friend 2,001,2021_Feb_23_2046,cal_abstract,2021.1.0,None,
,,,,Fix1,stimuli/Old/14.jpg,right,,,,,,,,,,,,0,47,47,47,,,,,,,,,,,,,,,,,,,,,,,,,,,,,,,,,,,,,,,,1,,,,,,,,,,,,,,,,,1066.000099839,None,1066.000099839,None,right,1,3.04529109699979,1066.000099839,None,1069.099367761,None,,,,,,,,,,,,,,,,,,,,,,,,,,,,,,,,,,Friend 2,001,2021_Feb_23_2046,cal_abstract,2021.1.0,None,
,,,,Cond,stimuli/Wealth/43.jpg,left,,,,,,,,,,,,0,48,48,48,,,,,,,,,,,,,,,,,,,,,,,,,,,,,,,,,,,,,,,,1,,,,,,,,,,,,,,,,,1069.9015639120003,None,1069.9015639120003,None,left,1,7.18464286399967,1069.9015639120003,None,1077.11578959,None,,,,,,,,,,,,,,,,,,,,,,,,,,,,,,,,,,Friend 2,001,2021_Feb_23_2046,cal_abstract,2021.1.0,None,
,,,,Fix2,stimuli/Healthy/41.jpg,left,,,,,,,,,,,,0,49,49,49,,,,,,,,,,,,,,,,,,,,,,,,,,,,,,,,,,,,,,,,0,,,,,,,,,,,,,,,,,1077.9125731960003,None,1077.9125731960003,None,right,0,6.162458647999756,1077.9125731960003,None,1084.117510912,None,,,,,,,,,,,,,,,,,,,,,,,,,,,,,,,,,,Friend 2,001,2021_Feb_23_2046,cal_abstract,2021.1.0,None,
,,,,Cond,stimuli/Wealth/40.jpg,right,,,,,,,,,,,,0,50,50,50,,,,,,,,,,,,,,,,,,,,,,,,,,,,,,,,,,,,,,,,1,,,,,,,,,,,,,,,,,1084.916898126,None,1084.916898126,None,right,1,2.560728028000085,1084.916898126,None,1087.500070525,None,,,,,,,,,,,,,,,,,,,,,,,,,,,,,,,,,,Friend 2,001,2021_Feb_23_2046,cal_abstract,2021.1.0,None,
,,,,Fix1,stimuli/Old/43.jpg,right,,,,,,,,,,,,0,51,51,51,,,,,,,,,,,,,,,,,,,,,,,,,,,,,,,,,,,,,,,,1,,,,,,,,,,,,,,,,,1088.317243087,None,1088.317243087,None,right,1,2.720380703000046,1088.317243087,None,1091.100077525,None,,,,,,,,,,,,,,,,,,,,,,,,,,,,,,,,,,Friend 2,001,2021_Feb_23_2046,cal_abstract,2021.1.0,None,
,,,,Cond,stimuli/Wealth/44.jpg,left,,,,,,,,,,,,0,52,52,52,,,,,,,,,,,,,,,,,,,,,,,,,,,,,,,,,,,,,,,,0,,,,,,,,,,,,,,,,,1091.850472908,None,1091.850472908,None,right,0,7.1347654659998625,1091.850472908,None,1099.0173606930002,None,,,,,,,,,,,,,,,,,,,,,,,,,,,,,,,,,,Friend 2,001,2021_Feb_23_2046,cal_abstract,2021.1.0,None,
,,,,Fix1,stimuli/Old/10.jpg,right,,,,,,,,,,,,0,53,53,53,,,,,,,,,,,,,,,,,,,,,,,,,,,,,,,,,,,,,,,,1,,,,,,,,,,,,,,,,,1099.834201279,None,1099.834201279,None,right,1,7.227172719000009,1099.834201279,None,1107.118375294,None,,,,,,,,,,,,,,,,,,,,,,,,,,,,,,,,,,Friend 2,001,2021_Feb_23_2046,cal_abstract,2021.1.0,None,
,,,,Fix1,stimuli/Old/3.jpg,right,,,,,,,,,,,,0,54,54,54,,,,,,,,,,,,,,,,,,,,,,,,,,,,,,,,,,,,,,,,0,,,,,,,,,,,,,,,,,1107.916360369,None,1107.916360369,None,left,0,3.6168089180000607,1107.916360369,None,1111.566705398,None,,,,,,,,,,,,,,,,,,,,,,,,,,,,,,,,,,Friend 2,001,2021_Feb_23_2046,cal_abstract,2021.1.0,None,
,,,,Cond,stimuli/Wealth/13.jpg,left,,,,,,,,,,,,0,55,55,55,,,,,,,,,,,,,,,,,,,,,,,,,,,,,,,,,,,,,,,,0,,,,,,,,,,,,,,,,,1112.3657072390001,None,1112.3657072390001,None,right,0,5.389282626000295,1112.3657072390001,None,1117.781918868,None,,,,,,,,,,,,,,,,,,,,,,,,,,,,,,,,,,Friend 2,001,2021_Feb_23_2046,cal_abstract,2021.1.0,None,
,,,,Cond,stimuli/Wealth/14.jpg,right,,,,,,,,,,,,0,56,56,56,,,,,,,,,,,,,,,,,,,,,,,,,,,,,,,,,,,,,,,,0,,,,,,,,,,,,,,,,,1118.583296845,None,1118.583296845,None,left,0,2.3384474989998125,1118.583296845,None,1120.9493695380002,None,,,,,,,,,,,,,,,,,,,,,,,,,,,,,,,,,,Friend 2,001,2021_Feb_23_2046,cal_abstract,2021.1.0,None,
,,,,Fix2,stimuli/Healthy/65.jpg,left,,,,,,,,,,,,0,57,57,57,,,,,,,,,,,,,,,,,,,,,,,,,,,,,,,,,,,,,,,,1,,,,,,,,,,,,,,,,,1121.7332255310002,None,1121.7332255310002,None,left,1,12.828664282000318,1121.7332255310002,None,1134.5839651410001,None,,,,,,,,,,,,,,,,,,,,,,,,,,,,,,,,,,Friend 2,001,2021_Feb_23_2046,cal_abstract,2021.1.0,None,
,,,,Cond,stimuli/Wealth/45.jpg,right,,,,,,,,,,,,0,58,58,58,,,,,,,,,,,,,,,,,,,,,,,,,,,,,,,,,,,,,,,,0,,,,,,,,,,,,,,,,,1135.3671313110003,None,1135.3671313110003,None,left,0,12.06626148100031,1135.3671313110003,None,1147.4876025420003,None,,,,,,,,,,,,,,,,,,,,,,,,,,,,,,,,,,Friend 2,001,2021_Feb_23_2046,cal_abstract,2021.1.0,None,
,,,,Cond,stimuli/Wealth/31.jpg,left,,,,,,,,,,,,0,59,59,59,,,,,,,,,,,,,,,,,,,,,,,,,,,,,,,,,,,,,,,,0,,,,,,,,,,,,,,,,,1148.298393039,None,1148.298393039,None,right,0,52.64626459400006,1148.298393039,None,1200.98307158,None,,,,,,,,,,,,,,,,,,,,,,,,,,,,,,,,,,Friend 2,001,2021_Feb_23_2046,cal_abstract,2021.1.0,None,
,,,,Cond,stimuli/Wealth/46.jpg,right,,,,,,,,,,,,0,60,60,60,,,,,,,,,,,,,,,,,,,,,,,,,,,,,,,,,,,,,,,,1,,,,,,,,,,,,,,,,,1201.781629442,None,1201.781629442,None,right,1,8.925717522000014,1201.781629442,None,1210.7669260110001,None,,,,,,,,,,,,,,,,,,,,,,,,,,,,,,,,,,Friend 2,001,2021_Feb_23_2046,cal_abstract,2021.1.0,None,
,,,,Cond,stimuli/Wealth/52.jpg,left,,,,,,,,,,,,0,61,61,61,,,,,,,,,,,,,,,,,,,,,,,,,,,,,,,,,,,,,,,,1,,,,,,,,,,,,,,,,,1211.5818094350002,None,1211.5818094350002,None,left,1,3.383365292000235,1211.5818094350002,None,1215.0312910000002,None,,,,,,,,,,,,,,,,,,,,,,,,,,,,,,,,,,Friend 2,001,2021_Feb_23_2046,cal_abstract,2021.1.0,None,
,,,,Fix2,stimuli/Healthy/51.jpg,left,,,,,,,,,,,,0,62,62,62,,,,,,,,,,,,,,,,,,,,,,,,,,,,,,,,,,,,,,,,1,,,,,,,,,,,,,,,,,1215.781853208,None,1215.781853208,None,left,1,11.726797213999816,1215.781853208,None,1227.5647299440002,None,,,,,,,,,,,,,,,,,,,,,,,,,,,,,,,,,,Friend 2,001,2021_Feb_23_2046,cal_abstract,2021.1.0,None,
,,,,Fix2,stimuli/Healthy/32.jpg,left,,,,,,,,,,,,0,63,63,63,,,,,,,,,,,,,,,,,,,,,,,,,,,,,,,,,,,,,,,,1,,,,,,,,,,,,,,,,,1228.3488097100003,None,1228.3488097100003,None,left,1,2.5038089699996817,1228.3488097100003,None,1230.8817813690002,None,,,,,,,,,,,,,,,,,,,,,,,,,,,,,,,,,,Friend 2,001,2021_Feb_23_2046,cal_abstract,2021.1.0,None,
,,,,Fix2,stimuli/Healthy/45.jpg,left,,,,,,,,,,,,0,64,64,64,,,,,,,,,,,,,,,,,,,,,,,,,,,,,,,,,,,,,,,,1,,,,,,,,,,,,,,,,,1231.6646677210001,None,1231.6646677210001,None,left,1,3.566197521000049,1231.6646677210001,None,1235.247740937,None,,,,,,,,,,,,,,,,,,,,,,,,,,,,,,,,,,Friend 2,001,2021_Feb_23_2046,cal_abstract,2021.1.0,None,
,,,,Cond,stimuli/Wealth/19.jpg,right,,,,,,,,,,,,0,65,65,65,,,,,,,,,,,,,,,,,,,,,,,,,,,,,,,,,,,,,,,,0,,,,,,,,,,,,,,,,,1236.0318864360001,None,1236.0318864360001,None,left,0,4.7314467989999685,1236.0318864360001,None,1240.814107143,None,,,,,,,,,,,,,,,,,,,,,,,,,,,,,,,,,,Friend 2,001,2021_Feb_23_2046,cal_abstract,2021.1.0,None,
,,,,Fix1,stimuli/Old/8.jpg,right,,,,,,,,,,,,0,66,66,66,,,,,,,,,,,,,,,,,,,,,,,,,,,,,,,,,,,,,,,,1,,,,,,,,,,,,,,,,,1241.581301446,None,1241.581301446,None,right,1,14.72671220400025,1241.581301446,None,1256.3326479020002,None,,,,,,,,,,,,,,,,,,,,,,,,,,,,,,,,,,Friend 2,001,2021_Feb_23_2046,cal_abstract,2021.1.0,None,
,,,,Cond,stimuli/Wealth/22.jpg,left,,,,,,,,,,,,0,67,67,67,,,,,,,,,,,,,,,,,,,,,,,,,,,,,,,,,,,,,,,,0,,,,,,,,,,,,,,,,,1257.1522334760002,None,1257.1522334760002,None,right,0,6.264606450999963,1257.1522334760002,None,1263.4796319410002,None,,,,,,,,,,,,,,,,,,,,,,,,,,,,,,,,,,Friend 2,001,2021_Feb_23_2046,cal_abstract,2021.1.0,None,
,,,,Cond,stimuli/Wealth/11.jpg,right,,,,,,,,,,,,0,68,68,68,,,,,,,,,,,,,,,,,,,,,,,,,,,,,,,,,,,,,,,,0,,,,,,,,,,,,,,,,,1264.3315082150002,None,1264.3315082150002,None,left,0,8.318803317999937,1264.3315082150002,None,1272.712516701,None,,,,,,,,,,,,,,,,,,,,,,,,,,,,,,,,,,Friend 2,001,2021_Feb_23_2046,cal_abstract,2021.1.0,None,
,,,,Fix2,stimuli/Healthy/43.jpg,left,,,,,,,,,,,,0,69,69,69,,,,,,,,,,,,,,,,,,,,,,,,,,,,,,,,,,,,,,,,1,,,,,,,,,,,,,,,,,1273.514073838,None,1273.514073838,None,left,1,3.2879949120001584,1273.514073838,None,1276.830557411,None,,,,,,,,,,,,,,,,,,,,,,,,,,,,,,,,,,Friend 2,001,2021_Feb_23_2046,cal_abstract,2021.1.0,None,
,,,,Fix2,stimuli/Healthy/6.jpg,left,,,,,,,,,,,,0,70,70,70,,,,,,,,,,,,,,,,,,,,,,,,,,,,,,,,,,,,,,,,1,,,,,,,,,,,,,,,,,1277.630947921,None,1277.630947921,None,left,1,2.8525585639999917,1277.630947921,None,1280.531941321,None,,,,,,,,,,,,,,,,,,,,,,,,,,,,,,,,,,Friend 2,001,2021_Feb_23_2046,cal_abstract,2021.1.0,None,
,,,,Fix1,stimuli/Old/21.jpg,right,,,,,,,,,,,,0,71,71,71,,,,,,,,,,,,,,,,,,,,,,,,,,,,,,,,,,,,,,,,1,,,,,,,,,,,,,,,,,1281.3462244460002,None,1281.3462244460002,None,right,1,2.996455241000149,1281.3462244460002,None,1284.3958416240002,None,,,,,,,,,,,,,,,,,,,,,,,,,,,,,,,,,,Friend 2,001,2021_Feb_23_2046,cal_abstract,2021.1.0,None,
,,,,Fix2,stimuli/Healthy/9.jpg,left,,,,,,,,,,,,0,72,72,72,,,,,,,,,,,,,,,,,,,,,,,,,,,,,,,,,,,,,,,,1,,,,,,,,,,,,,,,,,1285.198326883,None,1285.198326883,None,left,1,4.189358885000274,1285.198326883,None,1289.4139762590003,None,,,,,,,,,,,,,,,,,,,,,,,,,,,,,,,,,,Friend 2,001,2021_Feb_23_2046,cal_abstract,2021.1.0,None,
,,,,Cond,stimuli/Wealth/51.jpg,right,,,,,,,,,,,,0,73,73,73,,,,,,,,,,,,,,,,,,,,,,,,,,,,,,,,,,,,,,,,0,,,,,,,,,,,,,,,,,1290.1847669460003,None,1290.1847669460003,None,left,0,2.7943918129999474,1290.1847669460003,None,1293.047590993,None,,,,,,,,,,,,,,,,,,,,,,,,,,,,,,,,,,Friend 2,001,2021_Feb_23_2046,cal_abstract,2021.1.0,None,
,,,,Fix1,stimuli/Old/54.jpg,right,,,,,,,,,,,,0,74,74,74,,,,,,,,,,,,,,,,,,,,,,,,,,,,,,,,,,,,,,,,1,,,,,,,,,,,,,,,,,1293.7967666180002,None,1293.7967666180002,None,right,1,27.56741301000011,1293.7967666180002,None,1321.397845463,None,,,,,,,,,,,,,,,,,,,,,,,,,,,,,,,,,,Friend 2,001,2021_Feb_23_2046,cal_abstract,2021.1.0,None,
,,,,Fix2,stimuli/Healthy/53.jpg,left,,,,,,,,,,,,0,75,75,75,,,,,,,,,,,,,,,,,,,,,,,,,,,,,,,,,,,,,,,,1,,,,,,,,,,,,,,,,,1322.179834091,None,1322.179834091,None,left,1,3.2720202679997783,1322.179834091,None,1325.512581337,None,,,,,,,,,,,,,,,,,,,,,,,,,,,,,,,,,,Friend 2,001,2021_Feb_23_2046,cal_abstract,2021.1.0,None,
,,,,Cond,stimuli/Wealth/49.jpg,right,,,,,,,,,,,,0,76,76,76,,,,,,,,,,,,,,,,,,,,,,,,,,,,,,,,,,,,,,,,0,,,,,,,,,,,,,,,,,1326.2841133750003,None,1326.2841133750003,None,left,0,8.536882436999804,1326.2841133750003,None,1334.9008216930001,None,,,,,,,,,,,,,,,,,,,,,,,,,,,,,,,,,,Friend 2,001,2021_Feb_23_2046,cal_abstract,2021.1.0,None,
,,,,Fix1,stimuli/Old/0.jpg,right,,,,,,,,,,,,0,77,77,77,,,,,,,,,,,,,,,,,,,,,,,,,,,,,,,,,,,,,,,,1,,,,,,,,,,,,,,,,,1335.664593417,None,1335.664593417,None,right,1,3.763676619999842,1335.664593417,None,1339.447656498,None,,,,,,,,,,,,,,,,,,,,,,,,,,,,,,,,,,Friend 2,001,2021_Feb_23_2046,cal_abstract,2021.1.0,None,
,,,,Cond,stimuli/Wealth/28.jpg,left,,,,,,,,,,,,0,78,78,78,,,,,,,,,,,,,,,,,,,,,,,,,,,,,,,,,,,,,,,,1,,,,,,,,,,,,,,,,,1340.264043876,None,1340.264043876,None,left,1,11.519331020999743,1340.264043876,None,1351.849720055,None,,,,,,,,,,,,,,,,,,,,,,,,,,,,,,,,,,Friend 2,001,2021_Feb_23_2046,cal_abstract,2021.1.0,None,
,,,,Cond,stimuli/Wealth/20.jpg,right,,,,,,,,,,,,0,79,79,79,,,,,,,,,,,,,,,,,,,,,,,,,,,,,,,,,,,,,,,,1,,,,,,,,,,,,,,,,,1352.646959148,None,1352.646959148,None,right,1,7.107736135999858,1352.646959148,None,1359.812536368,None,,,,,,,,,,,,,,,,,,,,,,,,,,,,,,,,,,Friend 2,001,2021_Feb_23_2046,cal_abstract,2021.1.0,None,
,,,,Fix1,stimuli/Old/47.jpg,right,,,,,,,,,,,,0,80,80,80,,,,,,,,,,,,,,,,,,,,,,,,,,,,,,,,,,,,,,,,1,,,,,,,,,,,,,,,,,1360.5653650560002,None,1360.5653650560002,None,right,1,4.203036639999937,1360.5653650560002,None,1364.813346283,None,,,,,,,,,,,,,,,,,,,,,,,,,,,,,,,,,,Friend 2,001,2021_Feb_23_2046,cal_abstract,2021.1.0,None,
,,,,Cond,stimuli/Wealth/55.jpg,left,,,,,,,,,,,,0,81,81,81,,,,,,,,,,,,,,,,,,,,,,,,,,,,,,,,,,,,,,,,1,,,,,,,,,,,,,,,,,1365.617002046,None,1365.617002046,None,left,1,5.491820481000104,1365.617002046,None,1371.163315019,None,,,,,,,,,,,,,,,,,,,,,,,,,,,,,,,,,,Friend 2,001,2021_Feb_23_2046,cal_abstract,2021.1.0,None,
,,,,Cond,stimuli/Wealth/37.jpg,right,,,,,,,,,,,,0,82,82,82,,,,,,,,,,,,,,,,,,,,,,,,,,,,,,,,,,,,,,,,1,,,,,,,,,,,,,,,,,1371.963951489,None,1371.963951489,None,right,1,3.428102136999769,1371.963951489,None,1375.428517105,None,,,,,,,,,,,,,,,,,,,,,,,,,,,,,,,,,,Friend 2,001,2021_Feb_23_2046,cal_abstract,2021.1.0,None,
,,,,Fix2,stimuli/Healthy/3.jpg,left,,,,,,,,,,,,0,83,83,83,,,,,,,,,,,,,,,,,,,,,,,,,,,,,,,,,,,,,,,,1,,,,,,,,,,,,,,,,,1376.229285508,None,1376.229285508,None,left,1,2.512830091000069,1376.229285508,None,1378.7921491890002,None,,,,,,,,,,,,,,,,,,,,,,,,,,,,,,,,,,Friend 2,001,2021_Feb_23_2046,cal_abstract,2021.1.0,None,
,,,,Fix1,stimuli/Old/16.jpg,right,,,,,,,,,,,,0,84,84,84,,,,,,,,,,,,,,,,,,,,,,,,,,,,,,,,,,,,,,,,1,,,,,,,,,,,,,,,,,1379.5464199540002,None,1379.5464199540002,None,right,1,3.8833682380000027,1379.5464199540002,None,1383.4653820900003,None,,,,,,,,,,,,,,,,,,,,,,,,,,,,,,,,,,Friend 2,001,2021_Feb_23_2046,cal_abstract,2021.1.0,None,
,,,,Fix2,stimuli/Healthy/33.jpg,left,,,,,,,,,,,,0,85,85,85,,,,,,,,,,,,,,,,,,,,,,,,,,,,,,,,,,,,,,,,1,,,,,,,,,,,,,,,,,1384.2459805030003,None,1384.2459805030003,None,left,1,8.171653343999878,1384.2459805030003,None,1392.4456380870001,None,,,,,,,,,,,,,,,,,,,,,,,,,,,,,,,,,,Friend 2,001,2021_Feb_23_2046,cal_abstract,2021.1.0,None,
,,,,Fix1,stimuli/Old/48.jpg,right,,,,,,,,,,,,0,86,86,86,,,,,,,,,,,,,,,,,,,,,,,,,,,,,,,,,,,,,,,,1,,,,,,,,,,,,,,,,,1393.230799509,None,1393.230799509,None,right,1,3.2646910729999945,1393.230799509,None,1396.528631142,None,,,,,,,,,,,,,,,,,,,,,,,,,,,,,,,,,,Friend 2,001,2021_Feb_23_2046,cal_abstract,2021.1.0,None,
,,,,Fix1,stimuli/Old/39.jpg,right,,,,,,,,,,,,0,87,87,87,,,,,,,,,,,,,,,,,,,,,,,,,,,,,,,,,,,,,,,,1,,,,,,,,,,,,,,,,,1397.329054836,None,1397.329054836,None,right,1,2.2953274450001118,1397.329054836,None,1399.647390688,None,,,,,,,,,,,,,,,,,,,,,,,,,,,,,,,,,,Friend 2,001,2021_Feb_23_2046,cal_abstract,2021.1.0,None,
,,,,Fix1,stimuli/Old/18.jpg,right,,,,,,,,,,,,0,88,88,88,,,,,,,,,,,,,,,,,,,,,,,,,,,,,,,,,,,,,,,,1,,,,,,,,,,,,,,,,,1400.4452891270003,None,1400.4452891270003,None,right,1,2.531875085000138,1400.4452891270003,None,1403.0128042410001,None,,,,,,,,,,,,,,,,,,,,,,,,,,,,,,,,,,Friend 2,001,2021_Feb_23_2046,cal_abstract,2021.1.0,None,
,,,,Fix1,stimuli/Old/13.jpg,right,,,,,,,,,,,,0,89,89,89,,,,,,,,,,,,,,,,,,,,,,,,,,,,,,,,,,,,,,,,1,,,,,,,,,,,,,,,,,1403.7958357060002,None,1403.7958357060002,None,right,1,2.1042357700002867,1403.7958357060002,None,1405.927752354,None,,,,,,,,,,,,,,,,,,,,,,,,,,,,,,,,,,Friend 2,001,2021_Feb_23_2046,cal_abstract,2021.1.0,None,
,,,,Fix2,stimuli/Healthy/57.jpg,left,,,,,,,,,,,,0,90,90,90,,,,,,,,,,,,,,,,,,,,,,,,,,,,,,,,,,,,,,,,1,,,,,,,,,,,,,,,,,1406.729165238,None,1406.729165238,None,left,1,7.267973681000058,1406.729165238,None,1414.0618416380003,None,,,,,,,,,,,,,,,,,,,,,,,,,,,,,,,,,,Friend 2,001,2021_Feb_23_2046,cal_abstract,2021.1.0,None,
,,,,Fix2,stimuli/Healthy/19.jpg,left,,,,,,,,,,,,0,91,91,91,,,,,,,,,,,,,,,,,,,,,,,,,,,,,,,,,,,,,,,,1,,,,,,,,,,,,,,,,,1414.7955833340002,None,1414.7955833340002,None,left,1,3.026647869000044,1414.7955833340002,None,1417.89556314,None,,,,,,,,,,,,,,,,,,,,,,,,,,,,,,,,,,Friend 2,001,2021_Feb_23_2046,cal_abstract,2021.1.0,None,
,,,,Fix2,stimuli/Healthy/21.jpg,left,,,,,,,,,,,,0,92,92,92,,,,,,,,,,,,,,,,,,,,,,,,,,,,,,,,,,,,,,,,1,,,,,,,,,,,,,,,,,1418.695859338,None,1418.695859338,None,left,1,8.39601574199969,1418.695859338,None,1427.1121170690003,None,,,,,,,,,,,,,,,,,,,,,,,,,,,,,,,,,,Friend 2,001,2021_Feb_23_2046,cal_abstract,2021.1.0,None,
,,,,Fix2,stimuli/Healthy/0.jpg,left,,,,,,,,,,,,0,93,93,93,,,,,,,,,,,,,,,,,,,,,,,,,,,,,,,,,,,,,,,,1,,,,,,,,,,,,,,,,,1427.911860239,None,1427.911860239,None,left,1,2.411004677999699,1427.911860239,None,1430.3787780100001,None,,,,,,,,,,,,,,,,,,,,,,,,,,,,,,,,,,Friend 2,001,2021_Feb_23_2046,cal_abstract,2021.1.0,None,
,,,,Fix1,stimuli/Old/35.jpg,right,,,,,,,,,,,,0,94,94,94,,,,,,,,,,,,,,,,,,,,,,,,,,,,,,,,,,,,,,,,1,,,,,,,,,,,,,,,,,1431.1274772740003,None,1431.1274772740003,None,right,1,1.986093740999877,1431.1274772740003,None,1433.162482326,None,,,,,,,,,,,,,,,,,,,,,,,,,,,,,,,,,,Friend 2,001,2021_Feb_23_2046,cal_abstract,2021.1.0,None,
,,,,Fix2,stimuli/Healthy/56.jpg,left,,,,,,,,,,,,0,95,95,95,,,,,,,,,,,,,,,,,,,,,,,,,,,,,,,,,,,,,,,,1,,,,,,,,,,,,,,,,,1433.9458010870003,None,1433.9458010870003,None,left,1,3.477605048999976,1433.9458010870003,None,1437.4454582060002,None,,,,,,,,,,,,,,,,,,,,,,,,,,,,,,,,,,Friend 2,001,2021_Feb_23_2046,cal_abstract,2021.1.0,None,
,,,,Cond,stimuli/Wealth/35.jpg,right,,,,,,,,,,,,0,96,96,96,,,,,,,,,,,,,,,,,,,,,,,,,,,,,,,,,,,,,,,,0,,,,,,,,,,,,,,,,,1438.2611053350001,None,1438.2611053350001,None,left,0,6.251534877000267,1438.2611053350001,None,1444.561634656,None,,,,,,,,,,,,,,,,,,,,,,,,,,,,,,,,,,Friend 2,001,2021_Feb_23_2046,cal_abstract,2021.1.0,None,
,,,,Fix1,stimuli/Old/23.jpg,right,,,,,,,,,,,,0,97,97,97,,,,,,,,,,,,,,,,,,,,,,,,,,,,,,,,,,,,,,,,1,,,,,,,,,,,,,,,,,1445.3458651310002,None,1445.3458651310002,None,right,1,6.919604841000364,1445.3458651310002,None,1452.327736363,None,,,,,,,,,,,,,,,,,,,,,,,,,,,,,,,,,,Friend 2,001,2021_Feb_23_2046,cal_abstract,2021.1.0,None,
,,,,Cond,stimuli/Wealth/42.jpg,left,,,,,,,,,,,,0,98,98,98,,,,,,,,,,,,,,,,,,,,,,,,,,,,,,,,,,,,,,,,0,,,,,,,,,,,,,,,,,1453.111954734,None,1453.111954734,None,right,0,3.652148388000114,1453.111954734,None,1456.7957579620002,None,,,,,,,,,,,,,,,,,,,,,,,,,,,,,,,,,,Friend 2,001,2021_Feb_23_2046,cal_abstract,2021.1.0,None,
,,,,Fix2,stimuli/Healthy/24.jpg,left,,,,,,,,,,,,0,99,99,99,,,,,,,,,,,,,,,,,,,,,,,,,,,,,,,,,,,,,,,,1,,,,,,,,,,,,,,,,,1457.5780013190001,None,1457.5780013190001,None,left,1,12.393760276999728,1457.5780013190001,None,1469.9945652260003,None,,,,,,,,,,,,,,,,,,,,,,,,,,,,,,,,,,Friend 2,001,2021_Feb_23_2046,cal_abstract,2021.1.0,None,
,,,,Cond,stimuli/Wealth/54.jpg,right,,,,,,,,,,,,0,100,100,100,,,,,,,,,,,,,,,,,,,,,,,,,,,,,,,,,,,,,,,,0,,,,,,,,,,,,,,,,,1470.7784738,None,1470.7784738,None,left,0,6.584535323000182,1470.7784738,None,1477.427283251,None,,,,,,,,,,,,,,,,,,,,,,,,,,,,,,,,,,Friend 2,001,2021_Feb_23_2046,cal_abstract,2021.1.0,None,
,,,,Cond,stimuli/Wealth/4.jpg,left,,,,,,,,,,,,0,101,101,101,,,,,,,,,,,,,,,,,,,,,,,,,,,,,,,,,,,,,,,,0,,,,,,,,,,,,,,,,,1478.2118686570002,None,1478.2118686570002,None,right,0,8.38116577000028,1478.2118686570002,None,1486.6157377570003,None,,,,,,,,,,,,,,,,,,,,,,,,,,,,,,,,,,Friend 2,001,2021_Feb_23_2046,cal_abstract,2021.1.0,None,
,,,,Fix2,stimuli/Healthy/48.jpg,left,,,,,,,,,,,,0,102,102,102,,,,,,,,,,,,,,,,,,,,,,,,,,,,,,,,,,,,,,,,1,,,,,,,,,,,,,,,,,1487.4107369580001,None,1487.4107369580001,None,left,1,2.5709044720001657,1487.4107369580001,None,1490.0129985060003,None,,,,,,,,,,,,,,,,,,,,,,,,,,,,,,,,,,Friend 2,001,2021_Feb_23_2046,cal_abstract,2021.1.0,None,
,,,,Fix2,stimuli/Healthy/15.jpg,left,,,,,,,,,,,,0,103,103,103,,,,,,,,,,,,,,,,,,,,,,,,,,,,,,,,,,,,,,,,1,,,,,,,,,,,,,,,,,1490.8113679480002,None,1490.8113679480002,None,left,1,2.0543348510000214,1490.8113679480002,None,1492.9278133010002,None,,,,,,,,,,,,,,,,,,,,,,,,,,,,,,,,,,Friend 2,001,2021_Feb_23_2046,cal_abstract,2021.1.0,None,
,,,,Cond,stimuli/Wealth/38.jpg,right,,,,,,,,,,,,0,104,104,104,,,,,,,,,,,,,,,,,,,,,,,,,,,,,,,,,,,,,,,,0,,,,,,,,,,,,,,,,,1493.7289397,None,1493.7289397,None,left,0,9.259388233999744,1493.7289397,None,1503.0128493060001,None,,,,,,,,,,,,,,,,,,,,,,,,,,,,,,,,,,Friend 2,001,2021_Feb_23_2046,cal_abstract,2021.1.0,None,
,,,,Cond,stimuli/Wealth/21.jpg,left,,,,,,,,,,,,0,105,105,105,,,,,,,,,,,,,,,,,,,,,,,,,,,,,,,,,,,,,,,,0,,,,,,,,,,,,,,,,,1503.810611342,None,1503.810611342,None,right,0,2.4497939470002166,1503.810611342,None,1506.2951465,None,,,,,,,,,,,,,,,,,,,,,,,,,,,,,,,,,,Friend 2,001,2021_Feb_23_2046,cal_abstract,2021.1.0,None,
,,,,Fix2,stimuli/Healthy/36.jpg,left,,,,,,,,,,,,0,106,106,106,,,,,,,,,,,,,,,,,,,,,,,,,,,,,,,,,,,,,,,,1,,,,,,,,,,,,,,,,,1507.0773018650002,None,1507.0773018650002,None,left,1,20.70874763999973,1507.0773018650002,None,1527.813984678,None,,,,,,,,,,,,,,,,,,,,,,,,,,,,,,,,,,Friend 2,001,2021_Feb_23_2046,cal_abstract,2021.1.0,None,
,,,,Fix1,stimuli/Old/12.jpg,right,,,,,,,,,,,,0,107,107,107,,,,,,,,,,,,,,,,,,,,,,,,,,,,,,,,,,,,,,,,1,,,,,,,,,,,,,,,,,1528.6106707060003,None,1528.6106707060003,None,right,1,10.476873819000048,1528.6106707060003,None,1539.1099553600002,None,,,,,,,,,,,,,,,,,,,,,,,,,,,,,,,,,,Friend 2,001,2021_Feb_23_2046,cal_abstract,2021.1.0,None,
,,,,Fix2,stimuli/Healthy/69.jpg,left,,,,,,,,,,,,0,108,108,108,,,,,,,,,,,,,,,,,,,,,,,,,,,,,,,,,,,,,,,,1,,,,,,,,,,,,,,,,,1539.8786093930003,None,1539.8786093930003,None,left,1,2.2069365729998935,1539.8786093930003,None,1542.111754049,None,,,,,,,,,,,,,,,,,,,,,,,,,,,,,,,,,,Friend 2,001,2021_Feb_23_2046,cal_abstract,2021.1.0,None,
,,,,Fix2,stimuli/Healthy/30.jpg,left,,,,,,,,,,,,0,109,109,109,,,,,,,,,,,,,,,,,,,,,,,,,,,,,,,,,,,,,,,,1,,,,,,,,,,,,,,,,,1542.910459929,None,1542.910459929,None,left,1,1.8328246799997032,1542.910459929,None,1544.777989019,None,,,,,,,,,,,,,,,,,,,,,,,,,,,,,,,,,,Friend 2,001,2021_Feb_23_2046,cal_abstract,2021.1.0,None,
,,,,Cond,stimuli/Wealth/23.jpg,right,,,,,,,,,,,,0,110,110,110,,,,,,,,,,,,,,,,,,,,,,,,,,,,,,,,,,,,,,,,0,,,,,,,,,,,,,,,,,1545.5781988890003,None,1545.5781988890003,None,left,0,2.54010527499986,1545.5781988890003,None,1548.178818881,None,,,,,,,,,,,,,,,,,,,,,,,,,,,,,,,,,,Friend 2,001,2021_Feb_23_2046,cal_abstract,2021.1.0,None,
,,,,Fix1,stimuli/Old/9.jpg,right,,,,,,,,,,,,0,111,111,111,,,,,,,,,,,,,,,,,,,,,,,,,,,,,,,,,,,,,,,,1,,,,,,,,,,,,,,,,,1548.977722612,None,1548.977722612,None,right,1,6.692761191000045,1548.977722612,None,1555.7292471640003,None,,,,,,,,,,,,,,,,,,,,,,,,,,,,,,,,,,Friend 2,001,2021_Feb_23_2046,cal_abstract,2021.1.0,None,
,,,,Fix1,stimuli/Old/50.jpg,right,,,,,,,,,,,,0,112,112,112,,,,,,,,,,,,,,,,,,,,,,,,,,,,,,,,,,,,,,,,1,,,,,,,,,,,,,,,,,1556.543472804,None,1556.543472804,None,right,1,2.109969486999944,1556.543472804,None,1558.6768115270002,None,,,,,,,,,,,,,,,,,,,,,,,,,,,,,,,,,,Friend 2,001,2021_Feb_23_2046,cal_abstract,2021.1.0,None,
,,,,Fix1,stimuli/Old/5.jpg,right,,,,,,,,,,,,0,113,113,113,,,,,,,,,,,,,,,,,,,,,,,,,,,,,,,,,,,,,,,,1,,,,,,,,,,,,,,,,,1559.4602344140003,None,1559.4602344140003,None,right,1,2.2715616179998506,1559.4602344140003,None,1561.7925048340003,None,,,,,,,,,,,,,,,,,,,,,,,,,,,,,,,,,,Friend 2,001,2021_Feb_23_2046,cal_abstract,2021.1.0,None,
,,,,Fix1,stimuli/Old/57.jpg,right,,,,,,,,,,,,0,114,114,114,,,,,,,,,,,,,,,,,,,,,,,,,,,,,,,,,,,,,,,,1,,,,,,,,,,,,,,,,,1562.577541536,None,1562.577541536,None,right,1,2.835661244000221,1562.577541536,None,1565.4608422290003,None,,,,,,,,,,,,,,,,,,,,,,,,,,,,,,,,,,Friend 2,001,2021_Feb_23_2046,cal_abstract,2021.1.0,None,
,,,,Cond,stimuli/Wealth/15.jpg,left,,,,,,,,,,,,0,115,115,115,,,,,,,,,,,,,,,,,,,,,,,,,,,,,,,,,,,,,,,,0,,,,,,,,,,,,,,,,,1566.25988169,None,1566.25988169,None,right,0,8.814743179999823,1566.25988169,None,1575.1265539250003,None,,,,,,,,,,,,,,,,,,,,,,,,,,,,,,,,,,Friend 2,001,2021_Feb_23_2046,cal_abstract,2021.1.0,None,
,,,,Fix1,stimuli/Old/26.jpg,right,,,,,,,,,,,,0,116,116,116,,,,,,,,,,,,,,,,,,,,,,,,,,,,,,,,,,,,,,,,1,,,,,,,,,,,,,,,,,1575.9072496890003,None,1575.9072496890003,None,right,1,3.0882028350001747,1575.9072496890003,None,1579.0425076370002,None,,,,,,,,,,,,,,,,,,,,,,,,,,,,,,,,,,Friend 2,001,2021_Feb_23_2046,cal_abstract,2021.1.0,None,
,,,,Cond,stimuli/Wealth/47.jpg,left,,,,,,,,,,,,0,117,117,117,,,,,,,,,,,,,,,,,,,,,,,,,,,,,,,,,,,,,,,,1,,,,,,,,,,,,,,,,,1579.844599899,None,1579.844599899,None,left,1,3.5695850980000614,1579.844599899,None,1583.4451809920001,None,,,,,,,,,,,,,,,,,,,,,,,,,,,,,,,,,,Friend 2,001,2021_Feb_23_2046,cal_abstract,2021.1.0,None,
,,,,Cond,stimuli/Wealth/30.jpg,right,,,,,,,,,,,,0,118,118,118,,,,,,,,,,,,,,,,,,,,,,,,,,,,,,,,,,,,,,,,1,,,,,,,,,,,,,,,,,1584.2611182290002,None,1584.2611182290002,None,right,1,4.728889198000161,1584.2611182290002,None,1589.044401431,None,,,,,,,,,,,,,,,,,,,,,,,,,,,,,,,,,,Friend 2,001,2021_Feb_23_2046,cal_abstract,2021.1.0,None,
,,,,Cond,stimuli/Wealth/36.jpg,left,,,,,,,,,,,,0,119,119,119,,,,,,,,,,,,,,,,,,,,,,,,,,,,,,,,,,,,,,,,1,,,,,,,,,,,,,,,,,1589.792260798,None,1589.792260798,None,left,1,19.76533881899968,1589.792260798,None,1609.576394142,None,,,,,,,,,,,,,,,,,,,,,,,,,,,,,,,,,,Friend 2,001,2021_Feb_23_2046,cal_abstract,2021.1.0,None,
,,,,Fix1,stimuli/Old/11.jpg,right,,,,,,,,,,,,0,120,120,120,,,,,,,,,,,,,,,,,,,,,,,,,,,,,,,,,,,,,,,,0,,,,,,,,,,,,,,,,,1610.3762430870001,None,1610.3762430870001,None,left,0,16.359744866000256,1610.3762430870001,None,1626.7627429180002,None,,,,,,,,,,,,,,,,,,,,,,,,,,,,,,,,,,Friend 2,001,2021_Feb_23_2046,cal_abstract,2021.1.0,None,
,,,,Cond,stimuli/Wealth/34.jpg,left,,,,,,,,,,,,0,121,121,121,,,,,,,,,,,,,,,,,,,,,,,,,,,,,,,,,,,,,,,,1,,,,,,,,,,,,,,,,,1627.5596967860001,None,1627.5596967860001,None,left,1,3.3601848320004137,1627.5596967860001,None,1630.976603703,None,,,,,,,,,,,,,,,,,,,,,,,,,,,,,,,,,,Friend 2,001,2021_Feb_23_2046,cal_abstract,2021.1.0,None,
,,,,Fix2,stimuli/Healthy/46.jpg,left,,,,,,,,,,,,0,122,122,122,,,,,,,,,,,,,,,,,,,,,,,,,,,,,,,,,,,,,,,,1,,,,,,,,,,,,,,,,,1631.775714116,None,1631.775714116,None,left,1,4.667818420000003,1631.775714116,None,1636.509698886,None,,,,,,,,,,,,,,,,,,,,,,,,,,,,,,,,,,Friend 2,001,2021_Feb_23_2046,cal_abstract,2021.1.0,None,
,,,,Fix1,stimuli/Old/32.jpg,right,,,,,,,,,,,,0,123,123,123,,,,,,,,,,,,,,,,,,,,,,,,,,,,,,,,,,,,,,,,1,,,,,,,,,,,,,,,,,1637.259939223,None,1637.259939223,None,right,1,1.2862375790000442,1637.259939223,None,1638.5933252710001,None,,,,,,,,,,,,,,,,,,,,,,,,,,,,,,,,,,Friend 2,001,2021_Feb_23_2046,cal_abstract,2021.1.0,None,
,,,,Cond,stimuli/Wealth/48.jpg,left,,,,,,,,,,,,0,124,124,124,,,,,,,,,,,,,,,,,,,,,,,,,,,,,,,,,,,,,,,,1,,,,,,,,,,,,,,,,,1639.391881864,None,1639.391881864,None,left,1,6.289628201000141,1639.391881864,None,1645.759303281,None,,,,,,,,,,,,,,,,,,,,,,,,,,,,,,,,,,Friend 2,001,2021_Feb_23_2046,cal_abstract,2021.1.0,None,
,,,,Fix1,stimuli/Old/27.jpg,right,,,,,,,,,,,,0,125,125,125,,,,,,,,,,,,,,,,,,,,,,,,,,,,,,,,,,,,,,,,1,,,,,,,,,,,,,,,,,1646.492707385,None,1646.492707385,None,right,1,3.7420226859999275,1646.492707385,None,1650.262408485,None,,,,,,,,,,,,,,,,,,,,,,,,,,,,,,,,,,Friend 2,001,2021_Feb_23_2046,cal_abstract,2021.1.0,None,
,,,,Cond,stimuli/Wealth/29.jpg,left,,,,,,,,,,,,0,126,126,126,,,,,,,,,,,,,,,,,,,,,,,,,,,,,,,,,,,,,,,,0,,,,,,,,,,,,,,,,,1651.0607302600001,None,1651.0607302600001,None,right,0,5.41464166600008,1651.0607302600001,None,1656.508576909,None,,,,,,,,,,,,,,,,,,,,,,,,,,,,,,,,,,Friend 2,001,2021_Feb_23_2046,cal_abstract,2021.1.0,None,
,,,,Fix1,stimuli/Old/42.jpg,right,,,,,,,,,,,,0,127,127,127,,,,,,,,,,,,,,,,,,,,,,,,,,,,,,,,,,,,,,,,1,,,,,,,,,,,,,,,,,1657.3090651040002,None,1657.3090651040002,None,right,1,3.0110505749998993,1657.3090651040002,None,1660.359224148,None,,,,,,,,,,,,,,,,,,,,,,,,,,,,,,,,,,Friend 2,001,2021_Feb_23_2046,cal_abstract,2021.1.0,None,
,,,,Fix1,stimuli/Old/4.jpg,right,,,,,,,,,,,,0,128,128,128,,,,,,,,,,,,,,,,,,,,,,,,,,,,,,,,,,,,,,,,1,,,,,,,,,,,,,,,,,1661.1602565940002,None,1661.1602565940002,None,right,1,4.127616350999688,1661.1602565940002,None,1665.325256818,None,,,,,,,,,,,,,,,,,,,,,,,,,,,,,,,,,,Friend 2,001,2021_Feb_23_2046,cal_abstract,2021.1.0,None,
,,,,Fix2,stimuli/Healthy/31.jpg,left,,,,,,,,,,,,0,129,129,129,,,,,,,,,,,,,,,,,,,,,,,,,,,,,,,,,,,,,,,,1,,,,,,,,,,,,,,,,,1666.1260095880002,None,1666.1260095880002,None,left,1,4.647264462000294,1666.1260095880002,None,1670.825119186,None,,,,,,,,,,,,,,,,,,,,,,,,,,,,,,,,,,Friend 2,001,2021_Feb_23_2046,cal_abstract,2021.1.0,None,
,,,,Cond,stimuli/Wealth/18.jpg,right,,,,,,,,,,,,0,130,130,130,,,,,,,,,,,,,,,,,,,,,,,,,,,,,,,,,,,,,,,,0,,,,,,,,,,,,,,,,,1671.609829419,None,1671.609829419,None,left,0,4.62872803099981,1671.609829419,None,1676.2924938270003,None,,,,,,,,,,,,,,,,,,,,,,,,,,,,,,,,,,Friend 2,001,2021_Feb_23_2046,cal_abstract,2021.1.0,None,
,,,,Fix2,stimuli/Healthy/52.jpg,left,,,,,,,,,,,,0,131,131,131,,,,,,,,,,,,,,,,,,,,,,,,,,,,,,,,,,,,,,,,1,,,,,,,,,,,,,,,,,1677.091523484,None,1677.091523484,None,left,1,5.078276431000177,1677.091523484,None,1682.22559774,None,,,,,,,,,,,,,,,,,,,,,,,,,,,,,,,,,,Friend 2,001,2021_Feb_23_2046,cal_abstract,2021.1.0,None,
,,,,Fix1,stimuli/Old/52.jpg,right,,,,,,,,,,,,0,132,132,132,,,,,,,,,,,,,,,,,,,,,,,,,,,,,,,,,,,,,,,,1,,,,,,,,,,,,,,,,,1683.0104886970003,None,1683.0104886970003,None,right,1,3.0960397040003045,1683.0104886970003,None,1686.1582461370003,None,,,,,,,,,,,,,,,,,,,,,,,,,,,,,,,,,,Friend 2,001,2021_Feb_23_2046,cal_abstract,2021.1.0,None,
,,,,Cond,stimuli/Wealth/39.jpg,left,,,,,,,,,,,,0,133,133,133,,,,,,,,,,,,,,,,,,,,,,,,,,,,,,,,,,,,,,,,1,,,,,,,,,,,,,,,,,1686.9295611920002,None,1686.9295611920002,None,left,1,3.4911380749999807,1686.9295611920002,None,1690.441227161,None,,,,,,,,,,,,,,,,,,,,,,,,,,,,,,,,,,Friend 2,001,2021_Feb_23_2046,cal_abstract,2021.1.0,None,
,,,,Fix1,stimuli/Old/34.jpg,right,,,,,,,,,,,,0,134,134,134,,,,,,,,,,,,,,,,,,,,,,,,,,,,,,,,,,,,,,,,1,,,,,,,,,,,,,,,,,1691.208406576,None,1691.208406576,None,right,1,3.2094005940002717,1691.208406576,None,1694.475672013,None,,,,,,,,,,,,,,,,,,,,,,,,,,,,,,,,,,Friend 2,001,2021_Feb_23_2046,cal_abstract,2021.1.0,None,
,,,,Fix1,stimuli/Old/22.jpg,right,,,,,,,,,,,,0,135,135,135,,,,,,,,,,,,,,,,,,,,,,,,,,,,,,,,,,,,,,,,1,,,,,,,,,,,,,,,,,1695.257696309,None,1695.257696309,None,right,1,15.834441718000107,1695.257696309,None,1711.125248585,None,,,,,,,,,,,,,,,,,,,,,,,,,,,,,,,,,,Friend 2,001,2021_Feb_23_2046,cal_abstract,2021.1.0,None,
,,,,Fix1,stimuli/Old/24.jpg,right,,,,,,,,,,,,0,136,136,136,,,,,,,,,,,,,,,,,,,,,,,,,,,,,,,,,,,,,,,,1,,,,,,,,,,,,,,,,,1711.9095226660002,None,1711.9095226660002,None,right,1,4.393259247999595,1711.9095226660002,None,1716.358793675,None,,,,,,,,,,,,,,,,,,,,,,,,,,,,,,,,,,Friend 2,001,2021_Feb_23_2046,cal_abstract,2021.1.0,None,
,,,,Cond,stimuli/Wealth/16.jpg,left,,,,,,,,,,,,0,137,137,137,,,,,,,,,,,,,,,,,,,,,,,,,,,,,,,,,,,,,,,,0,,,,,,,,,,,,,,,,,1717.12561156,None,1717.12561156,None,right,0,4.099118303000068,1717.12561156,None,1721.2955592490002,None,,,,,,,,,,,,,,,,,,,,,,,,,,,,,,,,,,Friend 2,001,2021_Feb_23_2046,cal_abstract,2021.1.0,None,
