Text,Block1Type,Block1Stim,Block1Corr,Block2Type,Block2Stim,Block2Corr,Block3Type,Block3Stim,Block3Corr,Instruction_loop.thisRepN,Instruction_loop.thisTrialN,Instruction_loop.thisN,Instruction_loop.thisIndex,Block1_loop.thisRepN,Block1_loop.thisTrialN,Block1_loop.thisN,Block1_loop.thisIndex,Block2_loop.thisRepN,Block2_loop.thisTrialN,Block2_loop.thisN,Block2_loop.thisIndex,Block3_loop.thisRepN,Block3_loop.thisTrialN,Block3_loop.thisN,Block3_loop.thisIndex,welcome_text1.started,welcome_text1.stopped,welcome_text2.started,welcome_text2.stopped,welcome_text3.started,welcome_text3.stopped,welcome_resp.keys,welcome_resp.rt,welcome_resp.started,welcome_resp.stopped,instruct_text1.started,instruct_text1.stopped,instruct_text2.started,instruct_text2.stopped,instruct_resp1.keys,instruct_resp1.rt,instruct_resp1.started,instruct_resp1.stopped,start_text1.started,start_text1.stopped,start_text2.started,start_text2.stopped,start_resp1.keys,start_resp1.rt,start_resp1.started,start_resp1.stopped,image1.started,image1.stopped,text1.started,text1.stopped,key_resp1.keys,key_resp1.corr,key_resp1.rt,key_resp1.started,key_resp1.stopped,trialCorrect,feedback_text1.started,feedback_text1.stopped,break_text1.started,break_text1.stopped,break_resp1.keys,break_resp1.rt,break_resp1.started,break_resp1.stopped,start_text3.started,start_text3.stopped,start_text4.started,start_text4.stopped,start_resp2.keys,start_resp2.rt,start_resp2.started,start_resp2.stopped,image2.started,image2.stopped,text2.started,text2.stopped,key_resp2.keys,key_resp2.corr,key_resp2.rt,key_resp2.started,key_resp2.stopped,feedback_text2.started,feedback_text2.stopped,break_text2.started,break_text2.stopped,break_resp2.keys,break_resp2.rt,break_resp2.started,break_resp2.stopped,start_text5.started,start_text5.stopped,start_text6.started,start_text6.stopped,start_resp3.keys,start_resp3.rt,start_resp3.started,start_resp3.stopped,image3.started,image3.stopped,text3.started,text3.stopped,key_resp3.keys,key_resp3.corr,key_resp3.rt,key_resp3.started,key_resp3.stopped,feedback_text3.started,feedback_text3.stopped,end_text1.started,end_text1.stopped,end_text2.started,end_text2.stopped,end_resp.keys,end_resp.rt,end_resp.started,end_resp.stopped,participant,session,date,expName,psychopyVersion,frameRate,
,,,,,,,,,,,,,,,,,,,,,,,,,,26.43327019098797,None,26.43327019098797,None,26.43327019098797,None,return,3.4509544080065098,26.43327019098797,None,,,,,,,,,,,,,,,,,,,,,,,,,,,,,,,,,,,,,,,,,,,,,,,,,,,,,,,,,,,,,,,,,,,,,,,,,,,,,,,,,,,,,,,1,001,2021_Feb_24_1331,cal_abstract,2020.2.10,59.962203183115214,
"You will be presented with a series of images. It is your job to learn, through trial and error, whether the “Left” or “Right” arrow key should be pressed for each image.",,,,,,,,,,0,0,0,0,,,,,,,,,,,,,,,,,,,,,,,29.949737338989507,None,29.949737338989507,None,return,4.591565959999571,29.949737338989507,None,,,,,,,,,,,,,,,,,,,,,,,,,,,,,,,,,,,,,,,,,,,,,,,,,,,,,,,,,,,,,,,,,,,,,,,,,,,,,,,1,001,2021_Feb_24_1331,cal_abstract,2020.2.10,59.962203183115214,
"For some images you should always press “Left”, and for others you should always press “Right” arrow key.",,,,,,,,,,0,1,1,1,,,,,,,,,,,,,,,,,,,,,,,34.5838753739954,None,34.5838753739954,None,return,2.8104922749917023,34.5838753739954,None,,,,,,,,,,,,,,,,,,,,,,,,,,,,,,,,,,,,,,,,,,,,,,,,,,,,,,,,,,,,,,,,,,,,,,,,,,,,,,,1,001,2021_Feb_24_1331,cal_abstract,2020.2.10,59.962203183115214,
"Some images are special: the correct response is the opposite of the preceding correct response. That is, if the previous correct answer was “Left” then the correct response would now be “Right”.",,,,,,,,,,0,2,2,2,,,,,,,,,,,,,,,,,,,,,,,37.43368022199138,None,37.43368022199138,None,return,8.125291959993774,37.43368022199138,None,,,,,,,,,,,,,,,,,,,,,,,,,,,,,,,,,,,,,,,,,,,,,,,,,,,,,,,,,,,,,,,,,,,,,,,,,,,,,,,1,001,2021_Feb_24_1331,cal_abstract,2020.2.10,59.962203183115214,
"After each response, you will be told whether you got the item correct or incorrect.",,,,,,,,,,0,3,3,3,,,,,,,,,,,,,,,,,,,,,,,45.60069978699903,None,45.60069978699903,None,return,2.3168438299908303,45.60069978699903,None,,,,,,,,,,,,,,,,,,,,,,,,,,,,,,,,,,,,,,,,,,,,,,,,,,,,,,,,,,,,,,,,,,,,,,,,,,,,,,,1,001,2021_Feb_24_1331,cal_abstract,2020.2.10,59.962203183115214,
"You can take as long as you like on each image, but the task will not continue until you press the “Left” or “Right” arrow key.",,,,,,,,,,0,4,4,4,,,,,,,,,,,,,,,,,,,,,,,47.94988067500526,None,47.94988067500526,None,return,17.522647239995422,47.94988067500526,None,,,,,,,,,,,,,,,,,,,,,,,,,,,,,,,,,,,,,,,,,,,,,,,,,,,,,,,,,,,,,,,,,,,,,,,,,,,,,,,1,001,2021_Feb_24_1331,cal_abstract,2020.2.10,59.962203183115214,
"The experiment will have three blocks, each block will take approximately 10 minutes to complete.",,,,,,,,,,0,5,5,5,,,,,,,,,,,,,,,,,,,,,,,65.51955268500024,None,65.51955268500024,None,return,22.825502763007535,65.51955268500024,None,,,,,,,,,,,,,,,,,,,,,,,,,,,,,,,,,,,,,,,,,,,,,,,,,,,,,,,,,,,,,,,,,,,,,,,,,,,,,,,1,001,2021_Feb_24_1331,cal_abstract,2020.2.10,59.962203183115214,
,,,,,,,,,,,,,,,,,,,,,,,,,,,,,,,,,,,,,,,,,,,,88.37022351598716,None,88.37022351598716,None,s,1.9386679730087053,88.37022351598716,None,,,,,,,,,,,,,,,,,,,,,,,,,,,,,,,,,,,,,,,,,,,,,,,,,,,,,,,,,,,,,,,,,,,,,,,1,001,2021_Feb_24_1331,cal_abstract,2020.2.10,59.962203183115214,
,Fix2,stimuli/Dangerous/15.jpg,right,,,,,,,,,,,0,0,0,0,,,,,,,,,,,,,,,,,,,,,,,,,,,,,,,,,,,90.5362554609892,None,90.5362554609892,None,left,0,3.3006114219897427,90.5362554609892,None,0,93.87132317799842,None,,,,,,,,,,,,,,,,,,,,,,,,,,,,,,,,,,,,,,,,,,,,,,,,,,,,,,,,,,,1,001,2021_Feb_24_1331,cal_abstract,2020.2.10,59.962203183115214,
,Fix1,stimuli/School/26.jpg,left,,,,,,,,,,,0,1,1,1,,,,,,,,,,,,,,,,,,,,,,,,,,,,,,,,,,,94.63810194499092,None,94.63810194499092,None,left,1,1.3384981220006011,94.63810194499092,None,1,96.0033451700001,None,,,,,,,,,,,,,,,,,,,,,,,,,,,,,,,,,,,,,,,,,,,,,,,,,,,,,,,,,,,1,001,2021_Feb_24_1331,cal_abstract,2020.2.10,59.962203183115214,
,Cond,stimuli/Small/10.jpg,right,,,,,,,,,,,0,2,2,2,,,,,,,,,,,,,,,,,,,,,,,,,,,,,,,,,,,96.77078813998378,None,96.77078813998378,None,left,0,1.2084986249974463,96.77078813998378,None,0,98.00352196299355,None,,,,,,,,,,,,,,,,,,,,,,,,,,,,,,,,,,,,,,,,,,,,,,,,,,,,,,,,,,,1,001,2021_Feb_24_1331,cal_abstract,2020.2.10,59.962203183115214,
,Fix1,stimuli/School/25.jpg,left,,,,,,,,,,,0,3,3,3,,,,,,,,,,,,,,,,,,,,,,,,,,,,,,,,,,,98.77200533199357,None,98.77200533199357,None,left,1,0.9732961929985322,98.77200533199357,None,1,99.77208144898759,None,,,,,,,,,,,,,,,,,,,,,,,,,,,,,,,,,,,,,,,,,,,,,,,,,,,,,,,,,,,1,001,2021_Feb_24_1331,cal_abstract,2020.2.10,59.962203183115214,
,Fix2,stimuli/Dangerous/30.jpg,right,,,,,,,,,,,0,4,4,4,,,,,,,,,,,,,,,,,,,,,,,,,,,,,,,,,,,100.53684801099007,None,100.53684801099007,None,right,1,0.7103981719992589,100.53684801099007,None,1,101.27513079499477,None,,,,,,,,,,,,,,,,,,,,,,,,,,,,,,,,,,,,,,,,,,,,,,,,,,,,,,,,,,,1,001,2021_Feb_24_1331,cal_abstract,2020.2.10,59.962203183115214,
,Fix2,stimuli/Dangerous/42.jpg,right,,,,,,,,,,,0,5,5,5,,,,,,,,,,,,,,,,,,,,,,,,,,,,,,,,,,,102.05449798097834,None,102.05449798097834,None,right,1,0.7025095259887166,102.05449798097834,None,1,102.78809513599845,None,,,,,,,,,,,,,,,,,,,,,,,,,,,,,,,,,,,,,,,,,,,,,,,,,,,,,,,,,,,1,001,2021_Feb_24_1331,cal_abstract,2020.2.10,59.962203183115214,
,Cond,stimuli/Small/4.jpg,left,,,,,,,,,,,0,6,6,6,,,,,,,,,,,,,,,,,,,,,,,,,,,,,,,,,,,103.55472069999087,None,103.55472069999087,None,left,1,1.7025055779959075,103.55472069999087,None,1,105.28884382700198,None,,,,,,,,,,,,,,,,,,,,,,,,,,,,,,,,,,,,,,,,,,,,,,,,,,,,,,,,,,,1,001,2021_Feb_24_1331,cal_abstract,2020.2.10,59.962203183115214,
,Fix2,stimuli/Dangerous/44.jpg,right,,,,,,,,,,,0,7,7,7,,,,,,,,,,,,,,,,,,,,,,,,,,,,,,,,,,,106.05422876900411,None,106.05422876900411,None,right,1,1.1084908230113797,106.05422876900411,None,1,107.18657161897863,None,,,,,,,,,,,,,,,,,,,,,,,,,,,,,,,,,,,,,,,,,,,,,,,,,,,,,,,,,,,1,001,2021_Feb_24_1331,cal_abstract,2020.2.10,59.962203183115214,
,Cond,stimuli/Small/39.jpg,left,,,,,,,,,,,0,8,8,8,,,,,,,,,,,,,,,,,,,,,,,,,,,,,,,,,,,107.95661168199149,None,107.95661168199149,None,left,1,3.1336565570090897,107.95661168199149,None,1,111.12269265399664,None,,,,,,,,,,,,,,,,,,,,,,,,,,,,,,,,,,,,,,,,,,,,,,,,,,,,,,,,,,,1,001,2021_Feb_24_1331,cal_abstract,2020.2.10,59.962203183115214,
,Fix2,stimuli/Dangerous/34.jpg,right,,,,,,,,,,,0,9,9,9,,,,,,,,,,,,,,,,,,,,,,,,,,,,,,,,,,,111.88803531898884,None,111.88803531898884,None,right,1,0.837384643004043,111.88803531898884,None,1,112.75732105699717,None,,,,,,,,,,,,,,,,,,,,,,,,,,,,,,,,,,,,,,,,,,,,,,,,,,,,,,,,,,,1,001,2021_Feb_24_1331,cal_abstract,2020.2.10,59.962203183115214,
,Cond,stimuli/Small/13.jpg,left,,,,,,,,,,,0,10,10,10,,,,,,,,,,,,,,,,,,,,,,,,,,,,,,,,,,,113.53877306400682,None,113.53877306400682,None,left,1,0.9236790020077024,113.53877306400682,None,1,114.48885709999013,None,,,,,,,,,,,,,,,,,,,,,,,,,,,,,,,,,,,,,,,,,,,,,,,,,,,,,,,,,,,1,001,2021_Feb_24_1331,cal_abstract,2020.2.10,59.962203183115214,
,Fix2,stimuli/Dangerous/6.jpg,right,,,,,,,,,,,0,11,11,11,,,,,,,,,,,,,,,,,,,,,,,,,,,,,,,,,,,115.2555456800037,None,115.2555456800037,None,right,1,0.766867700003786,115.2555456800037,None,1,116.04018739098683,None,,,,,,,,,,,,,,,,,,,,,,,,,,,,,,,,,,,,,,,,,,,,,,,,,,,,,,,,,,,1,001,2021_Feb_24_1331,cal_abstract,2020.2.10,59.962203183115214,
,Fix2,stimuli/Dangerous/24.jpg,right,,,,,,,,,,,0,12,12,12,,,,,,,,,,,,,,,,,,,,,,,,,,,,,,,,,,,116.82281615800457,None,116.82281615800457,None,right,1,0.9205863940005656,116.82281615800457,None,1,117.77345731999958,None,,,,,,,,,,,,,,,,,,,,,,,,,,,,,,,,,,,,,,,,,,,,,,,,,,,,,,,,,,,1,001,2021_Feb_24_1331,cal_abstract,2020.2.10,59.962203183115214,
,Cond,stimuli/Small/20.jpg,left,,,,,,,,,,,0,13,13,13,,,,,,,,,,,,,,,,,,,,,,,,,,,,,,,,,,,118.53951969000627,None,118.53951969000627,None,left,1,1.2184836060041562,118.53951969000627,None,1,119.79001910999068,None,,,,,,,,,,,,,,,,,,,,,,,,,,,,,,,,,,,,,,,,,,,,,,,,,,,,,,,,,,,1,001,2021_Feb_24_1331,cal_abstract,2020.2.10,59.962203183115214,
,Fix2,stimuli/Dangerous/33.jpg,right,,,,,,,,,,,0,14,14,14,,,,,,,,,,,,,,,,,,,,,,,,,,,,,,,,,,,120.5560136679851,None,120.5560136679851,None,right,1,0.7418965219985694,120.5560136679851,None,1,121.32153458299581,None,,,,,,,,,,,,,,,,,,,,,,,,,,,,,,,,,,,,,,,,,,,,,,,,,,,,,,,,,,,1,001,2021_Feb_24_1331,cal_abstract,2020.2.10,59.962203183115214,
,Cond,stimuli/Small/2.jpg,left,,,,,,,,,,,0,15,15,15,,,,,,,,,,,,,,,,,,,,,,,,,,,,,,,,,,,122.08797451099963,None,122.08797451099963,None,left,1,0.8659694870002568,122.08797451099963,None,1,122.97311449699919,None,,,,,,,,,,,,,,,,,,,,,,,,,,,,,,,,,,,,,,,,,,,,,,,,,,,,,,,,,,,1,001,2021_Feb_24_1331,cal_abstract,2020.2.10,59.962203183115214,
,Fix2,stimuli/Dangerous/41.jpg,right,,,,,,,,,,,0,16,16,16,,,,,,,,,,,,,,,,,,,,,,,,,,,,,,,,,,,123.73922719000257,None,123.73922719000257,None,right,1,0.913698182994267,123.73922719000257,None,1,124.67247454298194,None,,,,,,,,,,,,,,,,,,,,,,,,,,,,,,,,,,,,,,,,,,,,,,,,,,,,,,,,,,,1,001,2021_Feb_24_1331,cal_abstract,2020.2.10,59.962203183115214,
,Fix1,stimuli/School/56.jpg,left,,,,,,,,,,,0,17,17,17,,,,,,,,,,,,,,,,,,,,,,,,,,,,,,,,,,,125.43926309997914,None,125.43926309997914,None,right,0,1.9254547739983536,125.43926309997914,None,0,127.38968572000158,None,,,,,,,,,,,,,,,,,,,,,,,,,,,,,,,,,,,,,,,,,,,,,,,,,,,,,,,,,,,1,001,2021_Feb_24_1331,cal_abstract,2020.2.10,59.962203183115214,
,Cond,stimuli/Small/57.jpg,right,,,,,,,,,,,0,18,18,18,,,,,,,,,,,,,,,,,,,,,,,,,,,,,,,,,,,128.15646513699903,None,128.15646513699903,None,left,0,0.6122706769965589,128.15646513699903,None,0,128.78874546298175,None,,,,,,,,,,,,,,,,,,,,,,,,,,,,,,,,,,,,,,,,,,,,,,,,,,,,,,,,,,,1,001,2021_Feb_24_1331,cal_abstract,2020.2.10,59.962203183115214,
,Fix2,stimuli/Dangerous/58.jpg,right,,,,,,,,,,,0,19,19,19,,,,,,,,,,,,,,,,,,,,,,,,,,,,,,,,,,,129.55592136699124,None,129.55592136699124,None,right,1,1.8293686649994925,129.55592136699124,None,1,131.40685566997854,None,,,,,,,,,,,,,,,,,,,,,,,,,,,,,,,,,,,,,,,,,,,,,,,,,,,,,,,,,,,1,001,2021_Feb_24_1331,cal_abstract,2020.2.10,59.962203183115214,
,Cond,stimuli/Small/58.jpg,left,,,,,,,,,,,0,20,20,20,,,,,,,,,,,,,,,,,,,,,,,,,,,,,,,,,,,132.17428853097954,None,132.17428853097954,None,left,1,1.436099270998966,132.17428853097954,None,1,133.63933365498087,None,,,,,,,,,,,,,,,,,,,,,,,,,,,,,,,,,,,,,,,,,,,,,,,,,,,,,,,,,,,1,001,2021_Feb_24_1331,cal_abstract,2020.2.10,59.962203183115214,
,Fix2,stimuli/Dangerous/20.jpg,right,,,,,,,,,,,0,21,21,21,,,,,,,,,,,,,,,,,,,,,,,,,,,,,,,,,,,134.40586472698487,None,134.40586472698487,None,right,1,0.9782847309834324,134.40586472698487,None,1,135.4076922579843,None,,,,,,,,,,,,,,,,,,,,,,,,,,,,,,,,,,,,,,,,,,,,,,,,,,,,,,,,,,,1,001,2021_Feb_24_1331,cal_abstract,2020.2.10,59.962203183115214,
,Cond,stimuli/Small/29.jpg,left,,,,,,,,,,,0,22,22,22,,,,,,,,,,,,,,,,,,,,,,,,,,,,,,,,,,,136.17742663098034,None,136.17742663098034,None,left,1,1.2414797829987947,136.17742663098034,None,1,137.4401014400064,None,,,,,,,,,,,,,,,,,,,,,,,,,,,,,,,,,,,,,,,,,,,,,,,,,,,,,,,,,,,1,001,2021_Feb_24_1331,cal_abstract,2020.2.10,59.962203183115214,
,Fix2,stimuli/Dangerous/46.jpg,right,,,,,,,,,,,0,23,23,23,,,,,,,,,,,,,,,,,,,,,,,,,,,,,,,,,,,138.2082100189873,None,138.2082100189873,None,right,1,1.8154883709794376,138.2082100189873,None,1,140.05607430098462,None,,,,,,,,,,,,,,,,,,,,,,,,,,,,,,,,,,,,,,,,,,,,,,,,,,,,,,,,,,,1,001,2021_Feb_24_1331,cal_abstract,2020.2.10,59.962203183115214,
,Fix1,stimuli/School/10.jpg,left,,,,,,,,,,,0,24,24,24,,,,,,,,,,,,,,,,,,,,,,,,,,,,,,,,,,,140.82247518899385,None,140.82247518899385,None,right,0,1.625185093987966,140.82247518899385,None,0,142.47348947799765,None,,,,,,,,,,,,,,,,,,,,,,,,,,,,,,,,,,,,,,,,,,,,,,,,,,,,,,,,,,,1,001,2021_Feb_24_1331,cal_abstract,2020.2.10,59.962203183115214,
,Fix1,stimuli/School/50.jpg,left,,,,,,,,,,,0,25,25,25,,,,,,,,,,,,,,,,,,,,,,,,,,,,,,,,,,,143.24106969498098,None,143.24106969498098,None,left,1,0.9774070860003121,143.24106969498098,None,1,144.24169227600214,None,,,,,,,,,,,,,,,,,,,,,,,,,,,,,,,,,,,,,,,,,,,,,,,,,,,,,,,,,,,1,001,2021_Feb_24_1331,cal_abstract,2020.2.10,59.962203183115214,
,Cond,stimuli/Small/19.jpg,right,,,,,,,,,,,0,26,26,26,,,,,,,,,,,,,,,,,,,,,,,,,,,,,,,,,,,145.00770245699096,None,145.00770245699096,None,left,0,0.7066801019827835,145.00770245699096,None,0,145.741765793995,None,,,,,,,,,,,,,,,,,,,,,,,,,,,,,,,,,,,,,,,,,,,,,,,,,,,,,,,,,,,1,001,2021_Feb_24_1331,cal_abstract,2020.2.10,59.962203183115214,
,Fix1,stimuli/School/28.jpg,left,,,,,,,,,,,0,27,27,27,,,,,,,,,,,,,,,,,,,,,,,,,,,,,,,,,,,146.52560845698463,None,146.52560845698463,None,left,1,1.0778386650199536,146.52560845698463,None,1,147.62725858698832,None,,,,,,,,,,,,,,,,,,,,,,,,,,,,,,,,,,,,,,,,,,,,,,,,,,,,,,,,,,,1,001,2021_Feb_24_1331,cal_abstract,2020.2.10,59.962203183115214,
,Fix1,stimuli/School/35.jpg,left,,,,,,,,,,,0,28,28,28,,,,,,,,,,,,,,,,,,,,,,,,,,,,,,,,,,,148.40824332399643,None,148.40824332399643,None,left,1,1.4559454180125613,148.40824332399643,None,1,149.89098959599505,None,,,,,,,,,,,,,,,,,,,,,,,,,,,,,,,,,,,,,,,,,,,,,,,,,,,,,,,,,,,1,001,2021_Feb_24_1331,cal_abstract,2020.2.10,59.962203183115214,
,Fix1,stimuli/School/39.jpg,left,,,,,,,,,,,0,29,29,29,,,,,,,,,,,,,,,,,,,,,,,,,,,,,,,,,,,150.6581569169939,None,150.6581569169939,None,left,1,0.6701149439904839,150.6581569169939,None,1,151.35685680498136,None,,,,,,,,,,,,,,,,,,,,,,,,,,,,,,,,,,,,,,,,,,,,,,,,,,,,,,,,,,,1,001,2021_Feb_24_1331,cal_abstract,2020.2.10,59.962203183115214,
,Cond,stimuli/Small/42.jpg,right,,,,,,,,,,,0,30,30,30,,,,,,,,,,,,,,,,,,,,,,,,,,,,,,,,,,,152.1247770699847,None,152.1247770699847,None,right,1,0.8381721379992086,152.1247770699847,None,1,152.99044388500624,None,,,,,,,,,,,,,,,,,,,,,,,,,,,,,,,,,,,,,,,,,,,,,,,,,,,,,,,,,,,1,001,2021_Feb_24_1331,cal_abstract,2020.2.10,59.962203183115214,
,Fix2,stimuli/Dangerous/31.jpg,right,,,,,,,,,,,0,31,31,31,,,,,,,,,,,,,,,,,,,,,,,,,,,,,,,,,,,153.760503366997,None,153.760503366997,None,right,1,1.3544501950091217,153.760503366997,None,1,155.14380909400643,None,,,,,,,,,,,,,,,,,,,,,,,,,,,,,,,,,,,,,,,,,,,,,,,,,,,,,,,,,,,1,001,2021_Feb_24_1331,cal_abstract,2020.2.10,59.962203183115214,
,Cond,stimuli/Small/25.jpg,left,,,,,,,,,,,0,32,32,32,,,,,,,,,,,,,,,,,,,,,,,,,,,,,,,,,,,155.92545032000635,None,155.92545032000635,None,left,1,0.6944576860114466,155.92545032000635,None,1,156.6442205159983,None,,,,,,,,,,,,,,,,,,,,,,,,,,,,,,,,,,,,,,,,,,,,,,,,,,,,,,,,,,,1,001,2021_Feb_24_1331,cal_abstract,2020.2.10,59.962203183115214,
,Cond,stimuli/Small/9.jpg,right,,,,,,,,,,,0,33,33,33,,,,,,,,,,,,,,,,,,,,,,,,,,,,,,,,,,,157.40876446600305,None,157.40876446600305,None,left,0,0.504034112993395,157.40876446600305,None,0,157.94274221698288,None,,,,,,,,,,,,,,,,,,,,,,,,,,,,,,,,,,,,,,,,,,,,,,,,,,,,,,,,,,,1,001,2021_Feb_24_1331,cal_abstract,2020.2.10,59.962203183115214,
,Fix1,stimuli/School/9.jpg,left,,,,,,,,,,,0,34,34,34,,,,,,,,,,,,,,,,,,,,,,,,,,,,,,,,,,,158.7069832069974,None,158.7069832069974,None,left,1,0.761122673022328,158.7069832069974,None,1,159.4907296260062,None,,,,,,,,,,,,,,,,,,,,,,,,,,,,,,,,,,,,,,,,,,,,,,,,,,,,,,,,,,,1,001,2021_Feb_24_1331,cal_abstract,2020.2.10,59.962203183115214,
,Fix1,stimuli/School/23.jpg,left,,,,,,,,,,,0,35,35,35,,,,,,,,,,,,,,,,,,,,,,,,,,,,,,,,,,,160.25825644898578,None,160.25825644898578,None,left,1,2.734233758004848,160.25825644898578,None,1,163.00769155600574,None,,,,,,,,,,,,,,,,,,,,,,,,,,,,,,,,,,,,,,,,,,,,,,,,,,,,,,,,,,,1,001,2021_Feb_24_1331,cal_abstract,2020.2.10,59.962203183115214,
,Fix1,stimuli/School/54.jpg,left,,,,,,,,,,,0,36,36,36,,,,,,,,,,,,,,,,,,,,,,,,,,,,,,,,,,,163.77586857398273,None,163.77586857398273,None,left,1,1.1234953649982344,163.77586857398273,None,1,164.92426496898406,None,,,,,,,,,,,,,,,,,,,,,,,,,,,,,,,,,,,,,,,,,,,,,,,,,,,,,,,,,,,1,001,2021_Feb_24_1331,cal_abstract,2020.2.10,59.962203183115214,
,Cond,stimuli/Small/43.jpg,right,,,,,,,,,,,0,37,37,37,,,,,,,,,,,,,,,,,,,,,,,,,,,,,,,,,,,165.69228615498287,None,165.69228615498287,None,left,0,0.7760904989845585,165.69228615498287,None,0,166.49120598999434,None,,,,,,,,,,,,,,,,,,,,,,,,,,,,,,,,,,,,,,,,,,,,,,,,,,,,,,,,,,,1,001,2021_Feb_24_1331,cal_abstract,2020.2.10,59.962203183115214,
,Fix2,stimuli/Dangerous/22.jpg,right,,,,,,,,,,,0,38,38,38,,,,,,,,,,,,,,,,,,,,,,,,,,,,,,,,,,,167.25936259899754,None,167.25936259899754,None,right,1,0.9787623319716658,167.25936259899754,None,1,168.25912003798294,None,,,,,,,,,,,,,,,,,,,,,,,,,,,,,,,,,,,,,,,,,,,,,,,,,,,,,,,,,,,1,001,2021_Feb_24_1331,cal_abstract,2020.2.10,59.962203183115214,
,Fix2,stimuli/Dangerous/43.jpg,right,,,,,,,,,,,0,39,39,39,,,,,,,,,,,,,,,,,,,,,,,,,,,,,,,,,,,169.02566984199802,None,169.02566984199802,None,right,1,0.7654946080001537,169.02566984199802,None,1,169.80994058898068,None,,,,,,,,,,,,,,,,,,,,,,,,,,,,,,,,,,,,,,,,,,,,,,,,,,,,,,,,,,,1,001,2021_Feb_24_1331,cal_abstract,2020.2.10,59.962203183115214,
,Cond,stimuli/Small/36.jpg,left,,,,,,,,,,,0,40,40,40,,,,,,,,,,,,,,,,,,,,,,,,,,,,,,,,,,,170.5763927549997,None,170.5763927549997,None,left,1,1.1115042809979059,170.5763927549997,None,1,171.70935749600176,None,,,,,,,,,,,,,,,,,,,,,,,,,,,,,,,,,,,,,,,,,,,,,,,,,,,,,,,,,,,1,001,2021_Feb_24_1331,cal_abstract,2020.2.10,59.962203183115214,
,Fix2,stimuli/Dangerous/38.jpg,right,,,,,,,,,,,0,41,41,41,,,,,,,,,,,,,,,,,,,,,,,,,,,,,,,,,,,172.47783188300673,None,172.47783188300673,None,right,1,1.1030839410086628,172.47783188300673,None,1,173.6097974719887,None,,,,,,,,,,,,,,,,,,,,,,,,,,,,,,,,,,,,,,,,,,,,,,,,,,,,,,,,,,,1,001,2021_Feb_24_1331,cal_abstract,2020.2.10,59.962203183115214,
,Fix1,stimuli/School/18.jpg,left,,,,,,,,,,,0,42,42,42,,,,,,,,,,,,,,,,,,,,,,,,,,,,,,,,,,,174.37577652500477,None,174.37577652500477,None,right,0,1.3309540849877521,174.37577652500477,None,0,175.72658451797906,None,,,,,,,,,,,,,,,,,,,,,,,,,,,,,,,,,,,,,,,,,,,,,,,,,,,,,,,,,,,1,001,2021_Feb_24_1331,cal_abstract,2020.2.10,59.962203183115214,
,Fix1,stimuli/School/36.jpg,left,,,,,,,,,,,0,43,43,43,,,,,,,,,,,,,,,,,,,,,,,,,,,,,,,,,,,176.49271542800125,None,176.49271542800125,None,left,1,1.9268942630151287,176.49271542800125,None,1,178.44645913198474,None,,,,,,,,,,,,,,,,,,,,,,,,,,,,,,,,,,,,,,,,,,,,,,,,,,,,,,,,,,,1,001,2021_Feb_24_1331,cal_abstract,2020.2.10,59.962203183115214,
,Fix1,stimuli/School/48.jpg,left,,,,,,,,,,,0,44,44,44,,,,,,,,,,,,,,,,,,,,,,,,,,,,,,,,,,,179.21177009298117,None,179.21177009298117,None,left,1,1.970246497017797,179.21177009298117,None,1,181.21061019098852,None,,,,,,,,,,,,,,,,,,,,,,,,,,,,,,,,,,,,,,,,,,,,,,,,,,,,,,,,,,,1,001,2021_Feb_24_1331,cal_abstract,2020.2.10,59.962203183115214,
,Fix1,stimuli/School/42.jpg,left,,,,,,,,,,,0,45,45,45,,,,,,,,,,,,,,,,,,,,,,,,,,,,,,,,,,,181.97596119099762,None,181.97596119099762,None,left,1,0.9495561469811946,181.97596119099762,None,1,182.94326908700168,None,,,,,,,,,,,,,,,,,,,,,,,,,,,,,,,,,,,,,,,,,,,,,,,,,,,,,,,,,,,1,001,2021_Feb_24_1331,cal_abstract,2020.2.10,59.962203183115214,
,Cond,stimuli/Small/23.jpg,right,,,,,,,,,,,0,46,46,46,,,,,,,,,,,,,,,,,,,,,,,,,,,,,,,,,,,183.7102159629867,None,183.7102159629867,None,left,0,0.7799694739806,183.7102159629867,None,0,184.51215676998254,None,,,,,,,,,,,,,,,,,,,,,,,,,,,,,,,,,,,,,,,,,,,,,,,,,,,,,,,,,,,1,001,2021_Feb_24_1331,cal_abstract,2020.2.10,59.962203183115214,
,Cond,stimuli/Small/38.jpg,left,,,,,,,,,,,0,47,47,47,,,,,,,,,,,,,,,,,,,,,,,,,,,,,,,,,,,185.27583099598996,None,185.27583099598996,None,left,1,3.0102663959842175,185.27583099598996,None,1,188.3092234939977,None,,,,,,,,,,,,,,,,,,,,,,,,,,,,,,,,,,,,,,,,,,,,,,,,,,,,,,,,,,,1,001,2021_Feb_24_1331,cal_abstract,2020.2.10,59.962203183115214,
,Cond,stimuli/Small/55.jpg,right,,,,,,,,,,,0,48,48,48,,,,,,,,,,,,,,,,,,,,,,,,,,,,,,,,,,,189.07738178098225,None,189.07738178098225,None,left,0,0.653566391003551,189.07738178098225,None,0,189.76091046800138,None,,,,,,,,,,,,,,,,,,,,,,,,,,,,,,,,,,,,,,,,,,,,,,,,,,,,,,,,,,,1,001,2021_Feb_24_1331,cal_abstract,2020.2.10,59.962203183115214,
,Cond,stimuli/Small/1.jpg,left,,,,,,,,,,,0,49,49,49,,,,,,,,,,,,,,,,,,,,,,,,,,,,,,,,,,,190.52722713400726,None,190.52722713400726,None,left,1,1.4134502329980023,190.52722713400726,None,1,191.96061625599395,None,,,,,,,,,,,,,,,,,,,,,,,,,,,,,,,,,,,,,,,,,,,,,,,,,,,,,,,,,,,1,001,2021_Feb_24_1331,cal_abstract,2020.2.10,59.962203183115214,
,Fix1,stimuli/School/6.jpg,left,,,,,,,,,,,0,50,50,50,,,,,,,,,,,,,,,,,,,,,,,,,,,,,,,,,,,192.7277879579924,None,192.7277879579924,None,left,1,1.1149733620113693,192.7277879579924,None,1,193.86111930399784,None,,,,,,,,,,,,,,,,,,,,,,,,,,,,,,,,,,,,,,,,,,,,,,,,,,,,,,,,,,,1,001,2021_Feb_24_1331,cal_abstract,2020.2.10,59.962203183115214,
,Fix2,stimuli/Dangerous/18.jpg,right,,,,,,,,,,,0,51,51,51,,,,,,,,,,,,,,,,,,,,,,,,,,,,,,,,,,,194.6262815759983,None,194.6262815759983,None,right,1,1.983311682997737,194.6262815759983,None,1,196.62812006499735,None,,,,,,,,,,,,,,,,,,,,,,,,,,,,,,,,,,,,,,,,,,,,,,,,,,,,,,,,,,,1,001,2021_Feb_24_1331,cal_abstract,2020.2.10,59.962203183115214,
,Fix1,stimuli/School/1.jpg,left,,,,,,,,,,,0,52,52,52,,,,,,,,,,,,,,,,,,,,,,,,,,,,,,,,,,,197.39457240898628,None,197.39457240898628,None,left,1,1.059703567007091,197.39457240898628,None,1,198.47756763899815,None,,,,,,,,,,,,,,,,,,,,,,,,,,,,,,,,,,,,,,,,,,,,,,,,,,,,,,,,,,,1,001,2021_Feb_24_1331,cal_abstract,2020.2.10,59.962203183115214,
,Cond,stimuli/Small/33.jpg,right,,,,,,,,,,,0,53,53,53,,,,,,,,,,,,,,,,,,,,,,,,,,,,,,,,,,,199.24458253200282,None,199.24458253200282,None,left,0,5.824454592016991,199.24458253200282,None,0,205.09356286100228,None,,,,,,,,,,,,,,,,,,,,,,,,,,,,,,,,,,,,,,,,,,,,,,,,,,,,,,,,,,,1,001,2021_Feb_24_1331,cal_abstract,2020.2.10,59.962203183115214,
,Cond,stimuli/Small/12.jpg,left,,,,,,,,,,,0,54,54,54,,,,,,,,,,,,,,,,,,,,,,,,,,,,,,,,,,,205.8626710200042,None,205.8626710200042,None,left,1,0.8736356029985473,205.8626710200042,None,1,206.76195948099485,None,,,,,,,,,,,,,,,,,,,,,,,,,,,,,,,,,,,,,,,,,,,,,,,,,,,,,,,,,,,1,001,2021_Feb_24_1331,cal_abstract,2020.2.10,59.962203183115214,
,Cond,stimuli/Small/17.jpg,right,,,,,,,,,,,0,55,55,55,,,,,,,,,,,,,,,,,,,,,,,,,,,,,,,,,,,207.54560516498168,None,207.54560516498168,None,left,0,0.8856721979973372,207.54560516498168,None,0,208.46352123498218,None,,,,,,,,,,,,,,,,,,,,,,,,,,,,,,,,,,,,,,,,,,,,,,,,,,,,,,,,,,,1,001,2021_Feb_24_1331,cal_abstract,2020.2.10,59.962203183115214,
,Fix1,stimuli/School/17.jpg,left,,,,,,,,,,,0,56,56,56,,,,,,,,,,,,,,,,,,,,,,,,,,,,,,,,,,,209.2460614469892,None,209.2460614469892,None,left,1,8.1909222319955,209.2460614469892,None,1,217.46208024199586,None,,,,,,,,,,,,,,,,,,,,,,,,,,,,,,,,,,,,,,,,,,,,,,,,,,,,,,,,,,,1,001,2021_Feb_24_1331,cal_abstract,2020.2.10,59.962203183115214,
,Cond,stimuli/Small/11.jpg,right,,,,,,,,,,,0,57,57,57,,,,,,,,,,,,,,,,,,,,,,,,,,,,,,,,,,,218.23008375399513,None,218.23008375399513,None,left,0,0.9258703639789019,218.23008375399513,None,0,219.1783133370045,None,,,,,,,,,,,,,,,,,,,,,,,,,,,,,,,,,,,,,,,,,,,,,,,,,,,,,,,,,,,1,001,2021_Feb_24_1331,cal_abstract,2020.2.10,59.962203183115214,
,Fix1,stimuli/School/33.jpg,left,,,,,,,,,,,0,58,58,58,,,,,,,,,,,,,,,,,,,,,,,,,,,,,,,,,,,219.94576793900342,None,219.94576793900342,None,right,0,3.0022051419946365,219.94576793900342,None,0,222.97964846799732,None,,,,,,,,,,,,,,,,,,,,,,,,,,,,,,,,,,,,,,,,,,,,,,,,,,,,,,,,,,,1,001,2021_Feb_24_1331,cal_abstract,2020.2.10,59.962203183115214,
,Cond,stimuli/Small/18.jpg,right,,,,,,,,,,,0,59,59,59,,,,,,,,,,,,,,,,,,,,,,,,,,,,,,,,,,,223.74675473797834,None,223.74675473797834,None,right,1,0.8654624819755554,223.74675473797834,None,1,224.63035656698048,None,,,,,,,,,,,,,,,,,,,,,,,,,,,,,,,,,,,,,,,,,,,,,,,,,,,,,,,,,,,1,001,2021_Feb_24_1331,cal_abstract,2020.2.10,59.962203183115214,
,Fix2,stimuli/Dangerous/61.jpg,right,,,,,,,,,,,0,60,60,60,,,,,,,,,,,,,,,,,,,,,,,,,,,,,,,,,,,225.41326485099853,None,225.41326485099853,None,left,0,1.302775174000999,225.41326485099853,None,0,226.74645082600182,None,,,,,,,,,,,,,,,,,,,,,,,,,,,,,,,,,,,,,,,,,,,,,,,,,,,,,,,,,,,1,001,2021_Feb_24_1331,cal_abstract,2020.2.10,59.962203183115214,
,Fix2,stimuli/Dangerous/32.jpg,right,,,,,,,,,,,0,61,61,61,,,,,,,,,,,,,,,,,,,,,,,,,,,,,,,,,,,227.5131108200003,None,227.5131108200003,None,right,1,0.9037241089972667,227.5131108200003,None,1,228.4465076859924,None,,,,,,,,,,,,,,,,,,,,,,,,,,,,,,,,,,,,,,,,,,,,,,,,,,,,,,,,,,,1,001,2021_Feb_24_1331,cal_abstract,2020.2.10,59.962203183115214,
,Fix2,stimuli/Dangerous/28.jpg,right,,,,,,,,,,,0,62,62,62,,,,,,,,,,,,,,,,,,,,,,,,,,,,,,,,,,,229.21260074299062,None,229.21260074299062,None,right,1,0.8450974310107995,229.21260074299062,None,1,230.08053678798024,None,,,,,,,,,,,,,,,,,,,,,,,,,,,,,,,,,,,,,,,,,,,,,,,,,,,,,,,,,,,1,001,2021_Feb_24_1331,cal_abstract,2020.2.10,59.962203183115214,
,Cond,stimuli/Small/16.jpg,left,,,,,,,,,,,0,63,63,63,,,,,,,,,,,,,,,,,,,,,,,,,,,,,,,,,,,230.84755227400456,None,230.84755227400456,None,left,1,0.7324776399764232,230.84755227400456,None,1,231.59594495399506,None,,,,,,,,,,,,,,,,,,,,,,,,,,,,,,,,,,,,,,,,,,,,,,,,,,,,,,,,,,,1,001,2021_Feb_24_1331,cal_abstract,2020.2.10,59.962203183115214,
,Cond,stimuli/Small/14.jpg,right,,,,,,,,,,,0,64,64,64,,,,,,,,,,,,,,,,,,,,,,,,,,,,,,,,,,,232.36438526998973,None,232.36438526998973,None,left,0,0.7401779979991261,232.36438526998973,None,0,233.12927729499643,None,,,,,,,,,,,,,,,,,,,,,,,,,,,,,,,,,,,,,,,,,,,,,,,,,,,,,,,,,,,1,001,2021_Feb_24_1331,cal_abstract,2020.2.10,59.962203183115214,
,Fix2,stimuli/Dangerous/35.jpg,right,,,,,,,,,,,0,65,65,65,,,,,,,,,,,,,,,,,,,,,,,,,,,,,,,,,,,233.89636099600466,None,233.89636099600466,None,left,0,1.4471366280049551,233.89636099600466,None,0,235.36441511599696,None,,,,,,,,,,,,,,,,,,,,,,,,,,,,,,,,,,,,,,,,,,,,,,,,,,,,,,,,,,,1,001,2021_Feb_24_1331,cal_abstract,2020.2.10,59.962203183115214,
,Fix2,stimuli/Dangerous/3.jpg,right,,,,,,,,,,,0,66,66,66,,,,,,,,,,,,,,,,,,,,,,,,,,,,,,,,,,,236.11379626000416,None,236.11379626000416,None,right,1,16.943715529021574,236.11379626000416,None,1,253.08257269798196,None,,,,,,,,,,,,,,,,,,,,,,,,,,,,,,,,,,,,,,,,,,,,,,,,,,,,,,,,,,,1,001,2021_Feb_24_1331,cal_abstract,2020.2.10,59.962203183115214,
,Cond,stimuli/Small/45.jpg,left,,,,,,,,,,,0,67,67,67,,,,,,,,,,,,,,,,,,,,,,,,,,,,,,,,,,,253.8481499539921,None,253.8481499539921,None,left,1,1.3614508970058523,253.8481499539921,None,1,255.2319954620034,None,,,,,,,,,,,,,,,,,,,,,,,,,,,,,,,,,,,,,,,,,,,,,,,,,,,,,,,,,,,1,001,2021_Feb_24_1331,cal_abstract,2020.2.10,59.962203183115214,
,Fix2,stimuli/Dangerous/10.jpg,right,,,,,,,,,,,0,68,68,68,,,,,,,,,,,,,,,,,,,,,,,,,,,,,,,,,,,255.99833085399587,None,255.99833085399587,None,right,1,13.664657339977566,255.99833085399587,None,1,269.683004238992,None,,,,,,,,,,,,,,,,,,,,,,,,,,,,,,,,,,,,,,,,,,,,,,,,,,,,,,,,,,,1,001,2021_Feb_24_1331,cal_abstract,2020.2.10,59.962203183115214,
,Fix2,stimuli/Dangerous/9.jpg,right,,,,,,,,,,,0,69,69,69,,,,,,,,,,,,,,,,,,,,,,,,,,,,,,,,,,,270.4499321359908,None,270.4499321359908,None,right,1,0.7878113779879641,270.4499321359908,None,1,271.2659800919937,None,,,,,,,,,,,,,,,,,,,,,,,,,,,,,,,,,,,,,,,,,,,,,,,,,,,,,,,,,,,1,001,2021_Feb_24_1331,cal_abstract,2020.2.10,59.962203183115214,
,Cond,stimuli/Small/31.jpg,left,,,,,,,,,,,0,70,70,70,,,,,,,,,,,,,,,,,,,,,,,,,,,,,,,,,,,272.0321622019983,None,272.0321622019983,None,left,1,2.2394307689974084,272.0321622019983,None,1,274.30046314699575,None,,,,,,,,,,,,,,,,,,,,,,,,,,,,,,,,,,,,,,,,,,,,,,,,,,,,,,,,,,,1,001,2021_Feb_24_1331,cal_abstract,2020.2.10,59.962203183115214,
,Fix1,stimuli/School/19.jpg,left,,,,,,,,,,,0,71,71,71,,,,,,,,,,,,,,,,,,,,,,,,,,,,,,,,,,,275.0670753669983,None,275.0670753669983,None,left,1,0.8713777170050889,275.0670753669983,None,1,275.96701959500206,None,,,,,,,,,,,,,,,,,,,,,,,,,,,,,,,,,,,,,,,,,,,,,,,,,,,,,,,,,,,1,001,2021_Feb_24_1331,cal_abstract,2020.2.10,59.962203183115214,
,Fix1,stimuli/School/11.jpg,left,,,,,,,,,,,0,72,72,72,,,,,,,,,,,,,,,,,,,,,,,,,,,,,,,,,,,276.7338325949968,None,276.7338325949968,None,left,1,0.863495433004573,276.7338325949968,None,1,277.6149957769958,None,,,,,,,,,,,,,,,,,,,,,,,,,,,,,,,,,,,,,,,,,,,,,,,,,,,,,,,,,,,1,001,2021_Feb_24_1331,cal_abstract,2020.2.10,59.962203183115214,
,Fix1,stimuli/School/31.jpg,left,,,,,,,,,,,0,73,73,73,,,,,,,,,,,,,,,,,,,,,,,,,,,,,,,,,,,278.38424067499,None,278.38424067499,None,left,1,0.8702172950142995,278.38424067499,None,1,279.2835645180021,None,,,,,,,,,,,,,,,,,,,,,,,,,,,,,,,,,,,,,,,,,,,,,,,,,,,,,,,,,,,1,001,2021_Feb_24_1331,cal_abstract,2020.2.10,59.962203183115214,
,Fix1,stimuli/School/21.jpg,left,,,,,,,,,,,0,74,74,74,,,,,,,,,,,,,,,,,,,,,,,,,,,,,,,,,,,280.0509543340013,None,280.0509543340013,None,right,0,1.2654423370258883,280.0509543340013,None,0,281.33300738598336,None,,,,,,,,,,,,,,,,,,,,,,,,,,,,,,,,,,,,,,,,,,,,,,,,,,,,,,,,,,,1,001,2021_Feb_24_1331,cal_abstract,2020.2.10,59.962203183115214,
,Fix1,stimuli/School/55.jpg,left,,,,,,,,,,,0,75,75,75,,,,,,,,,,,,,,,,,,,,,,,,,,,,,,,,,,,282.08386766698095,None,282.08386766698095,None,left,1,0.8290076819830574,282.08386766698095,None,1,282.93283589798375,None,,,,,,,,,,,,,,,,,,,,,,,,,,,,,,,,,,,,,,,,,,,,,,,,,,,,,,,,,,,1,001,2021_Feb_24_1331,cal_abstract,2020.2.10,59.962203183115214,
,Cond,stimuli/Small/32.jpg,right,,,,,,,,,,,0,76,76,76,,,,,,,,,,,,,,,,,,,,,,,,,,,,,,,,,,,283.70150582000497,None,283.70150582000497,None,left,0,1.0200680289999582,283.70150582000497,None,0,284.7512274949986,None,,,,,,,,,,,,,,,,,,,,,,,,,,,,,,,,,,,,,,,,,,,,,,,,,,,,,,,,,,,1,001,2021_Feb_24_1331,cal_abstract,2020.2.10,59.962203183115214,
,Fix2,stimuli/Dangerous/48.jpg,right,,,,,,,,,,,0,77,77,77,,,,,,,,,,,,,,,,,,,,,,,,,,,,,,,,,,,285.51758251999854,None,285.51758251999854,None,right,1,0.7600689390092157,285.51758251999854,None,1,286.3012255280046,None,,,,,,,,,,,,,,,,,,,,,,,,,,,,,,,,,,,,,,,,,,,,,,,,,,,,,,,,,,,1,001,2021_Feb_24_1331,cal_abstract,2020.2.10,59.962203183115214,
,Cond,stimuli/Small/5.jpg,left,,,,,,,,,,,0,78,78,78,,,,,,,,,,,,,,,,,,,,,,,,,,,,,,,,,,,287.08445054199547,None,287.08445054199547,None,left,1,0.8752076509990729,287.08445054199547,None,1,287.9846347440034,None,,,,,,,,,,,,,,,,,,,,,,,,,,,,,,,,,,,,,,,,,,,,,,,,,,,,,,,,,,,1,001,2021_Feb_24_1331,cal_abstract,2020.2.10,59.962203183115214,
,Fix1,stimuli/School/37.jpg,left,,,,,,,,,,,0,79,79,79,,,,,,,,,,,,,,,,,,,,,,,,,,,,,,,,,,,288.75506170099834,None,288.75506170099834,None,left,1,6.731415712973103,288.75506170099834,None,1,295.51827680299175,None,,,,,,,,,,,,,,,,,,,,,,,,,,,,,,,,,,,,,,,,,,,,,,,,,,,,,,,,,,,1,001,2021_Feb_24_1331,cal_abstract,2020.2.10,59.962203183115214,
,Fix1,stimuli/School/27.jpg,left,,,,,,,,,,,0,80,80,80,,,,,,,,,,,,,,,,,,,,,,,,,,,,,,,,,,,296.285501528997,None,296.285501528997,None,left,1,1.3583636970142834,296.285501528997,None,1,297.67180331700365,None,,,,,,,,,,,,,,,,,,,,,,,,,,,,,,,,,,,,,,,,,,,,,,,,,,,,,,,,,,,1,001,2021_Feb_24_1331,cal_abstract,2020.2.10,59.962203183115214,
,Cond,stimuli/Small/28.jpg,right,,,,,,,,,,,0,81,81,81,,,,,,,,,,,,,,,,,,,,,,,,,,,,,,,,,,,298.4524593100068,None,298.4524593100068,None,left,0,4.859811352012912,298.4524593100068,None,0,303.33490753298975,None,,,,,,,,,,,,,,,,,,,,,,,,,,,,,,,,,,,,,,,,,,,,,,,,,,,,,,,,,,,1,001,2021_Feb_24_1331,cal_abstract,2020.2.10,59.962203183115214,
,Cond,stimuli/Small/30.jpg,left,,,,,,,,,,,0,82,82,82,,,,,,,,,,,,,,,,,,,,,,,,,,,,,,,,,,,304.1012803739868,None,304.1012803739868,None,right,0,2.2128726720111445,304.1012803739868,None,0,306.33503263100283,None,,,,,,,,,,,,,,,,,,,,,,,,,,,,,,,,,,,,,,,,,,,,,,,,,,,,,,,,,,,1,001,2021_Feb_24_1331,cal_abstract,2020.2.10,59.962203183115214,
,Fix1,stimuli/School/59.jpg,left,,,,,,,,,,,0,83,83,83,,,,,,,,,,,,,,,,,,,,,,,,,,,,,,,,,,,307.10197890299605,None,307.10197890299605,None,left,1,0.9492907499952707,307.10197890299605,None,1,308.0683248889982,None,,,,,,,,,,,,,,,,,,,,,,,,,,,,,,,,,,,,,,,,,,,,,,,,,,,,,,,,,,,1,001,2021_Feb_24_1331,cal_abstract,2020.2.10,59.962203183115214,
,Fix2,stimuli/Dangerous/7.jpg,right,,,,,,,,,,,0,84,84,84,,,,,,,,,,,,,,,,,,,,,,,,,,,,,,,,,,,308.85275306898984,None,308.85275306898984,None,right,1,2.397205910005141,308.85275306898984,None,1,311.2690066389914,None,,,,,,,,,,,,,,,,,,,,,,,,,,,,,,,,,,,,,,,,,,,,,,,,,,,,,,,,,,,1,001,2021_Feb_24_1331,cal_abstract,2020.2.10,59.962203183115214,
,Cond,stimuli/Small/37.jpg,left,,,,,,,,,,,0,85,85,85,,,,,,,,,,,,,,,,,,,,,,,,,,,,,,,,,,,312.03523134000716,None,312.03523134000716,None,left,1,0.5847031140001491,312.03523134000716,None,1,312.6520688949968,None,,,,,,,,,,,,,,,,,,,,,,,,,,,,,,,,,,,,,,,,,,,,,,,,,,,,,,,,,,,1,001,2021_Feb_24_1331,cal_abstract,2020.2.10,59.962203183115214,
,Fix1,stimuli/School/13.jpg,left,,,,,,,,,,,0,86,86,86,,,,,,,,,,,,,,,,,,,,,,,,,,,,,,,,,,,313.4192409910029,None,313.4192409910029,None,left,1,1.4265264569839928,313.4192409910029,None,1,314.86922774798586,None,,,,,,,,,,,,,,,,,,,,,,,,,,,,,,,,,,,,,,,,,,,,,,,,,,,,,,,,,,,1,001,2021_Feb_24_1331,cal_abstract,2020.2.10,59.962203183115214,
,Fix2,stimuli/Dangerous/14.jpg,right,,,,,,,,,,,0,87,87,87,,,,,,,,,,,,,,,,,,,,,,,,,,,,,,,,,,,315.636123150005,None,315.636123150005,None,right,1,0.6994654719892424,315.636123150005,None,1,316.35181560198544,None,,,,,,,,,,,,,,,,,,,,,,,,,,,,,,,,,,,,,,,,,,,,,,,,,,,,,,,,,,,1,001,2021_Feb_24_1331,cal_abstract,2020.2.10,59.962203183115214,
,Cond,stimuli/Small/50.jpg,left,,,,,,,,,,,0,88,88,88,,,,,,,,,,,,,,,,,,,,,,,,,,,,,,,,,,,317.11996397198527,None,317.11996397198527,None,left,1,3.57838258400443,317.11996397198527,None,1,320.71859689897974,None,,,,,,,,,,,,,,,,,,,,,,,,,,,,,,,,,,,,,,,,,,,,,,,,,,,,,,,,,,,1,001,2021_Feb_24_1331,cal_abstract,2020.2.10,59.962203183115214,
,Fix2,stimuli/Dangerous/63.jpg,right,,,,,,,,,,,0,89,89,89,,,,,,,,,,,,,,,,,,,,,,,,,,,,,,,,,,,321.48626772197895,None,321.48626772197895,None,left,0,1.3213892880012281,321.48626772197895,None,0,322.8361325440055,None,,,,,,,,,,,,,,,,,,,,,,,,,,,,,,,,,,,,,,,,,,,,,,,,,,,,,,,,,,,1,001,2021_Feb_24_1331,cal_abstract,2020.2.10,59.962203183115214,
,Fix2,stimuli/Dangerous/0.jpg,right,,,,,,,,,,,0,90,90,90,,,,,,,,,,,,,,,,,,,,,,,,,,,,,,,,,,,323.6036560939974,None,323.6036560939974,None,right,1,1.2399088020029012,323.6036560939974,None,1,324.8702051669825,None,,,,,,,,,,,,,,,,,,,,,,,,,,,,,,,,,,,,,,,,,,,,,,,,,,,,,,,,,,,1,001,2021_Feb_24_1331,cal_abstract,2020.2.10,59.962203183115214,
,Fix1,stimuli/School/32.jpg,left,,,,,,,,,,,0,91,91,91,,,,,,,,,,,,,,,,,,,,,,,,,,,,,,,,,,,325.6369067360065,None,325.6369067360065,None,left,1,2.110299854015466,325.6369067360065,None,1,327.76998136998736,None,,,,,,,,,,,,,,,,,,,,,,,,,,,,,,,,,,,,,,,,,,,,,,,,,,,,,,,,,,,1,001,2021_Feb_24_1331,cal_abstract,2020.2.10,59.962203183115214,
,Fix1,stimuli/School/29.jpg,left,,,,,,,,,,,0,92,92,92,,,,,,,,,,,,,,,,,,,,,,,,,,,,,,,,,,,328.5370028470061,None,328.5370028470061,None,left,1,1.1102201570174657,328.5370028470061,None,1,329.6707719419792,None,,,,,,,,,,,,,,,,,,,,,,,,,,,,,,,,,,,,,,,,,,,,,,,,,,,,,,,,,,,1,001,2021_Feb_24_1331,cal_abstract,2020.2.10,59.962203183115214,
,Cond,stimuli/Small/7.jpg,right,,,,,,,,,,,0,93,93,93,,,,,,,,,,,,,,,,,,,,,,,,,,,,,,,,,,,330.4371859350067,None,330.4371859350067,None,left,0,0.6177947749965824,330.4371859350067,None,0,331.1040084529959,None,,,,,,,,,,,,,,,,,,,,,,,,,,,,,,,,,,,,,,,,,,,,,,,,,,,,,,,,,,,1,001,2021_Feb_24_1331,cal_abstract,2020.2.10,59.962203183115214,
,Fix2,stimuli/Dangerous/19.jpg,right,,,,,,,,,,,0,94,94,94,,,,,,,,,,,,,,,,,,,,,,,,,,,,,,,,,,,331.8708757449931,None,331.8708757449931,None,right,1,1.4653139949950855,331.8708757449931,None,1,333.35349966798094,None,,,,,,,,,,,,,,,,,,,,,,,,,,,,,,,,,,,,,,,,,,,,,,,,,,,,,,,,,,,1,001,2021_Feb_24_1331,cal_abstract,2020.2.10,59.962203183115214,
,Cond,stimuli/Small/51.jpg,left,,,,,,,,,,,0,95,95,95,,,,,,,,,,,,,,,,,,,,,,,,,,,,,,,,,,,334.10343433599337,None,334.10343433599337,None,left,1,1.1547388340113685,334.10343433599337,None,1,335.2880379050039,None,,,,,,,,,,,,,,,,,,,,,,,,,,,,,,,,,,,,,,,,,,,,,,,,,,,,,,,,,,,1,001,2021_Feb_24_1331,cal_abstract,2020.2.10,59.962203183115214,
,Fix2,stimuli/Dangerous/4.jpg,right,,,,,,,,,,,0,96,96,96,,,,,,,,,,,,,,,,,,,,,,,,,,,,,,,,,,,336.05383082598564,None,336.05383082598564,None,right,1,0.9358234609826468,336.05383082598564,None,1,337.0211976709834,None,,,,,,,,,,,,,,,,,,,,,,,,,,,,,,,,,,,,,,,,,,,,,,,,,,,,,,,,,,,1,001,2021_Feb_24_1331,cal_abstract,2020.2.10,59.962203183115214,
,Cond,stimuli/Small/24.jpg,left,,,,,,,,,,,0,97,97,97,,,,,,,,,,,,,,,,,,,,,,,,,,,,,,,,,,,337.7879529359925,None,337.7879529359925,None,left,1,1.3246341999911238,337.7879529359925,None,1,339.14240808499744,None,,,,,,,,,,,,,,,,,,,,,,,,,,,,,,,,,,,,,,,,,,,,,,,,,,,,,,,,,,,1,001,2021_Feb_24_1331,cal_abstract,2020.2.10,59.962203183115214,
,Fix1,stimuli/School/58.jpg,left,,,,,,,,,,,0,98,98,98,,,,,,,,,,,,,,,,,,,,,,,,,,,,,,,,,,,339.90490379498806,None,339.90490379498806,None,left,1,0.638674276007805,339.90490379498806,None,1,340.5717540269834,None,,,,,,,,,,,,,,,,,,,,,,,,,,,,,,,,,,,,,,,,,,,,,,,,,,,,,,,,,,,1,001,2021_Feb_24_1331,cal_abstract,2020.2.10,59.962203183115214,
,Cond,stimuli/Small/35.jpg,right,,,,,,,,,,,0,99,99,99,,,,,,,,,,,,,,,,,,,,,,,,,,,,,,,,,,,341.33775710198097,None,341.33775710198097,None,left,0,0.7149038800271228,341.33775710198097,None,0,342.06995130199357,None,,,,,,,,,,,,,,,,,,,,,,,,,,,,,,,,,,,,,,,,,,,,,,,,,,,,,,,,,,,1,001,2021_Feb_24_1331,cal_abstract,2020.2.10,59.962203183115214,
,Cond,stimuli/Small/40.jpg,left,,,,,,,,,,,0,100,100,100,,,,,,,,,,,,,,,,,,,,,,,,,,,,,,,,,,,342.837895707984,None,342.837895707984,None,left,1,0.6263976920163259,342.837895707984,None,1,343.4878335179819,None,,,,,,,,,,,,,,,,,,,,,,,,,,,,,,,,,,,,,,,,,,,,,,,,,,,,,,,,,,,1,001,2021_Feb_24_1331,cal_abstract,2020.2.10,59.962203183115214,
,Cond,stimuli/Small/3.jpg,right,,,,,,,,,,,0,101,101,101,,,,,,,,,,,,,,,,,,,,,,,,,,,,,,,,,,,344.25546672800556,None,344.25546672800556,None,left,0,0.8078397860226687,344.25546672800556,None,0,345.08830908400705,None,,,,,,,,,,,,,,,,,,,,,,,,,,,,,,,,,,,,,,,,,,,,,,,,,,,,,,,,,,,1,001,2021_Feb_24_1331,cal_abstract,2020.2.10,59.962203183115214,
,Fix1,stimuli/School/38.jpg,left,,,,,,,,,,,0,102,102,102,,,,,,,,,,,,,,,,,,,,,,,,,,,,,,,,,,,345.8538790449966,None,345.8538790449966,None,left,1,2.4481200390146114,345.8538790449966,None,1,348.3221586679865,None,,,,,,,,,,,,,,,,,,,,,,,,,,,,,,,,,,,,,,,,,,,,,,,,,,,,,,,,,,,1,001,2021_Feb_24_1331,cal_abstract,2020.2.10,59.962203183115214,
,Fix2,stimuli/Dangerous/26.jpg,right,,,,,,,,,,,0,103,103,103,,,,,,,,,,,,,,,,,,,,,,,,,,,,,,,,,,,349.10497497199685,None,349.10497497199685,None,right,1,0.7969397809938528,349.10497497199685,None,1,349.922746169992,None,,,,,,,,,,,,,,,,,,,,,,,,,,,,,,,,,,,,,,,,,,,,,,,,,,,,,,,,,,,1,001,2021_Feb_24_1331,cal_abstract,2020.2.10,59.962203183115214,
,Fix1,stimuli/School/51.jpg,left,,,,,,,,,,,0,104,104,104,,,,,,,,,,,,,,,,,,,,,,,,,,,,,,,,,,,350.6887425649911,None,350.6887425649911,None,left,1,0.8931658229848836,350.6887425649911,None,1,351.60387714300305,None,,,,,,,,,,,,,,,,,,,,,,,,,,,,,,,,,,,,,,,,,,,,,,,,,,,,,,,,,,,1,001,2021_Feb_24_1331,cal_abstract,2020.2.10,59.962203183115214,
,Cond,stimuli/Small/56.jpg,right,,,,,,,,,,,0,105,105,105,,,,,,,,,,,,,,,,,,,,,,,,,,,,,,,,,,,352.3720492209832,None,352.3720492209832,None,left,0,1.2321263040066697,352.3720492209832,None,0,353.6213389119948,None,,,,,,,,,,,,,,,,,,,,,,,,,,,,,,,,,,,,,,,,,,,,,,,,,,,,,,,,,,,1,001,2021_Feb_24_1331,cal_abstract,2020.2.10,59.962203183115214,
,Cond,stimuli/Small/44.jpg,left,,,,,,,,,,,0,106,106,106,,,,,,,,,,,,,,,,,,,,,,,,,,,,,,,,,,,354.38871277999715,None,354.38871277999715,None,left,1,0.7389125009940472,354.38871277999715,None,1,355.1551233859791,None,,,,,,,,,,,,,,,,,,,,,,,,,,,,,,,,,,,,,,,,,,,,,,,,,,,,,,,,,,,1,001,2021_Feb_24_1331,cal_abstract,2020.2.10,59.962203183115214,
,Fix2,stimuli/Dangerous/36.jpg,right,,,,,,,,,,,0,107,107,107,,,,,,,,,,,,,,,,,,,,,,,,,,,,,,,,,,,355.9224035939842,None,355.9224035939842,None,right,1,0.6631119659869,355.9224035939842,None,1,356.60608947099536,None,,,,,,,,,,,,,,,,,,,,,,,,,,,,,,,,,,,,,,,,,,,,,,,,,,,,,,,,,,,1,001,2021_Feb_24_1331,cal_abstract,2020.2.10,59.962203183115214,
,Cond,stimuli/Small/54.jpg,left,,,,,,,,,,,0,108,108,108,,,,,,,,,,,,,,,,,,,,,,,,,,,,,,,,,,,357.37271118100034,None,357.37271118100034,None,right,0,0.7676374549919274,357.37271118100034,None,0,358.1722750439949,None,,,,,,,,,,,,,,,,,,,,,,,,,,,,,,,,,,,,,,,,,,,,,,,,,,,,,,,,,,,1,001,2021_Feb_24_1331,cal_abstract,2020.2.10,59.962203183115214,
,Fix1,stimuli/School/0.jpg,left,,,,,,,,,,,0,109,109,109,,,,,,,,,,,,,,,,,,,,,,,,,,,,,,,,,,,358.93875585400383,None,358.93875585400383,None,left,1,0.564871763024712,358.93875585400383,None,1,359.52240856399294,None,,,,,,,,,,,,,,,,,,,,,,,,,,,,,,,,,,,,,,,,,,,,,,,,,,,,,,,,,,,1,001,2021_Feb_24_1331,cal_abstract,2020.2.10,59.962203183115214,
,Fix1,stimuli/School/57.jpg,left,,,,,,,,,,,0,110,110,110,,,,,,,,,,,,,,,,,,,,,,,,,,,,,,,,,,,360.2881155019859,None,360.2881155019859,None,left,1,0.9173381789878476,360.2881155019859,None,1,361.2390794880048,None,,,,,,,,,,,,,,,,,,,,,,,,,,,,,,,,,,,,,,,,,,,,,,,,,,,,,,,,,,,1,001,2021_Feb_24_1331,cal_abstract,2020.2.10,59.962203183115214,
,Fix1,stimuli/School/24.jpg,left,,,,,,,,,,,0,111,111,111,,,,,,,,,,,,,,,,,,,,,,,,,,,,,,,,,,,362.00645251898095,None,362.00645251898095,None,left,1,0.7218479900038801,362.00645251898095,None,1,362.7558001120051,None,,,,,,,,,,,,,,,,,,,,,,,,,,,,,,,,,,,,,,,,,,,,,,,,,,,,,,,,,,,1,001,2021_Feb_24_1331,cal_abstract,2020.2.10,59.962203183115214,
,Fix2,stimuli/Dangerous/45.jpg,right,,,,,,,,,,,0,112,112,112,,,,,,,,,,,,,,,,,,,,,,,,,,,,,,,,,,,363.5225803179783,None,363.5225803179783,None,right,1,0.9536707699880935,363.5225803179783,None,1,364.50619020999875,None,,,,,,,,,,,,,,,,,,,,,,,,,,,,,,,,,,,,,,,,,,,,,,,,,,,,,,,,,,,1,001,2021_Feb_24_1331,cal_abstract,2020.2.10,59.962203183115214,
,Fix2,stimuli/Dangerous/40.jpg,right,,,,,,,,,,,0,113,113,113,,,,,,,,,,,,,,,,,,,,,,,,,,,,,,,,,,,365.2763215570012,None,365.2763215570012,None,right,1,1.6856527699856088,365.2763215570012,None,1,366.9892312549928,None,,,,,,,,,,,,,,,,,,,,,,,,,,,,,,,,,,,,,,,,,,,,,,,,,,,,,,,,,,,1,001,2021_Feb_24_1331,cal_abstract,2020.2.10,59.962203183115214,
,Fix2,stimuli/Dangerous/39.jpg,right,,,,,,,,,,,0,114,114,114,,,,,,,,,,,,,,,,,,,,,,,,,,,,,,,,,,,367.75594555199496,None,367.75594555199496,None,right,1,0.7979424179939087,367.75594555199496,None,1,368.57719655300025,None,,,,,,,,,,,,,,,,,,,,,,,,,,,,,,,,,,,,,,,,,,,,,,,,,,,,,,,,,,,1,001,2021_Feb_24_1331,cal_abstract,2020.2.10,59.962203183115214,
,Cond,stimuli/Small/59.jpg,left,,,,,,,,,,,0,115,115,115,,,,,,,,,,,,,,,,,,,,,,,,,,,,,,,,,,,369.3571996910032,None,369.3571996910032,None,right,0,0.6634843499923591,369.3571996910032,None,0,370.05707626999356,None,,,,,,,,,,,,,,,,,,,,,,,,,,,,,,,,,,,,,,,,,,,,,,,,,,,,,,,,,,,1,001,2021_Feb_24_1331,cal_abstract,2020.2.10,59.962203183115214,
,Fix2,stimuli/Dangerous/21.jpg,right,,,,,,,,,,,0,116,116,116,,,,,,,,,,,,,,,,,,,,,,,,,,,,,,,,,,,370.8238727269927,None,370.8238727269927,None,right,1,0.5640324839914683,370.8238727269927,None,1,371.40608691298985,None,,,,,,,,,,,,,,,,,,,,,,,,,,,,,,,,,,,,,,,,,,,,,,,,,,,,,,,,,,,1,001,2021_Feb_24_1331,cal_abstract,2020.2.10,59.962203183115214,
,Fix1,stimuli/School/15.jpg,left,,,,,,,,,,,0,117,117,117,,,,,,,,,,,,,,,,,,,,,,,,,,,,,,,,,,,372.173460489983,None,372.173460489983,None,left,1,1.0609497519908473,372.173460489983,None,1,373.25620568697923,None,,,,,,,,,,,,,,,,,,,,,,,,,,,,,,,,,,,,,,,,,,,,,,,,,,,,,,,,,,,1,001,2021_Feb_24_1331,cal_abstract,2020.2.10,59.962203183115214,
,Fix1,stimuli/School/5.jpg,left,,,,,,,,,,,0,118,118,118,,,,,,,,,,,,,,,,,,,,,,,,,,,,,,,,,,,374.02371789800236,None,374.02371789800236,None,left,1,2.0977888189954683,374.02371789800236,None,1,376.140852084005,None,,,,,,,,,,,,,,,,,,,,,,,,,,,,,,,,,,,,,,,,,,,,,,,,,,,,,,,,,,,1,001,2021_Feb_24_1331,cal_abstract,2020.2.10,59.962203183115214,
,Fix1,stimuli/School/46.jpg,left,,,,,,,,,,,0,119,119,119,,,,,,,,,,,,,,,,,,,,,,,,,,,,,,,,,,,376.9071620189934,None,376.9071620189934,None,left,1,1.9509566130000167,376.9071620189934,None,1,378.8892429200059,None,,,,,,,,,,,,,,,,,,,,,,,,,,,,,,,,,,,,,,,,,,,,,,,,,,,,,,,,,,,1,001,2021_Feb_24_1331,cal_abstract,2020.2.10,59.962203183115214,
,Fix1,stimuli/School/4.jpg,left,,,,,,,,,,,0,120,120,120,,,,,,,,,,,,,,,,,,,,,,,,,,,,,,,,,,,379.65723496099235,None,379.65723496099235,None,left,1,0.7599245439923834,379.65723496099235,None,1,380.4406128519913,None,,,,,,,,,,,,,,,,,,,,,,,,,,,,,,,,,,,,,,,,,,,,,,,,,,,,,,,,,,,1,001,2021_Feb_24_1331,cal_abstract,2020.2.10,59.962203183115214,
,Fix2,stimuli/Dangerous/8.jpg,right,,,,,,,,,,,0,121,121,121,,,,,,,,,,,,,,,,,,,,,,,,,,,,,,,,,,,381.207997407997,None,381.207997407997,None,right,1,0.7224135069991462,381.207997407997,None,1,381.957326578995,None,,,,,,,,,,,,,,,,,,,,,,,,,,,,,,,,,,,,,,,,,,,,,,,,,,,,,,,,,,,1,001,2021_Feb_24_1331,cal_abstract,2020.2.10,59.962203183115214,
,Fix2,stimuli/Dangerous/17.jpg,right,,,,,,,,,,,0,122,122,122,,,,,,,,,,,,,,,,,,,,,,,,,,,,,,,,,,,382.7226618999848,None,382.7226618999848,None,left,0,3.3634074910078198,382.7226618999848,None,0,386.10708257800434,None,,,,,,,,,,,,,,,,,,,,,,,,,,,,,,,,,,,,,,,,,,,,,,,,,,,,,,,,,,,1,001,2021_Feb_24_1331,cal_abstract,2020.2.10,59.962203183115214,
,Fix2,stimuli/Dangerous/1.jpg,right,,,,,,,,,,,0,123,123,123,,,,,,,,,,,,,,,,,,,,,,,,,,,,,,,,,,,386.874031216983,None,386.874031216983,None,right,1,1.0265917080105282,386.874031216983,None,1,387.9248110399931,None,,,,,,,,,,,,,,,,,,,,,,,,,,,,,,,,,,,,,,,,,,,,,,,,,,,,,,,,,,,1,001,2021_Feb_24_1331,cal_abstract,2020.2.10,59.962203183115214,
,Fix1,stimuli/School/3.jpg,left,,,,,,,,,,,0,124,124,124,,,,,,,,,,,,,,,,,,,,,,,,,,,,,,,,,,,388.69101135098026,None,388.69101135098026,None,left,1,1.215582725009881,388.69101135098026,None,1,389.92464251298225,None,,,,,,,,,,,,,,,,,,,,,,,,,,,,,,,,,,,,,,,,,,,,,,,,,,,,,,,,,,,1,001,2021_Feb_24_1331,cal_abstract,2020.2.10,59.962203183115214,
,Fix2,stimuli/Dangerous/37.jpg,right,,,,,,,,,,,0,125,125,125,,,,,,,,,,,,,,,,,,,,,,,,,,,,,,,,,,,390.69136452200473,None,390.69136452200473,None,right,1,0.6171478710020892,390.69136452200473,None,1,391.3247912559891,None,,,,,,,,,,,,,,,,,,,,,,,,,,,,,,,,,,,,,,,,,,,,,,,,,,,,,,,,,,,1,001,2021_Feb_24_1331,cal_abstract,2020.2.10,59.962203183115214,
,Fix1,stimuli/School/22.jpg,left,,,,,,,,,,,0,126,126,126,,,,,,,,,,,,,,,,,,,,,,,,,,,,,,,,,,,392.09173290099716,None,392.09173290099716,None,left,1,0.8796022610040382,392.09173290099716,None,1,392.9917225239915,None,,,,,,,,,,,,,,,,,,,,,,,,,,,,,,,,,,,,,,,,,,,,,,,,,,,,,,,,,,,1,001,2021_Feb_24_1331,cal_abstract,2020.2.10,59.962203183115214,
,Fix2,stimuli/Dangerous/51.jpg,right,,,,,,,,,,,0,127,127,127,,,,,,,,,,,,,,,,,,,,,,,,,,,,,,,,,,,393.761468562996,None,393.761468562996,None,right,1,1.2307069309754297,393.761468562996,None,1,395.0237703919993,None,,,,,,,,,,,,,,,,,,,,,,,,,,,,,,,,,,,,,,,,,,,,,,,,,,,,,,,,,,,1,001,2021_Feb_24_1331,cal_abstract,2020.2.10,59.962203183115214,
,Cond,stimuli/Small/6.jpg,left,,,,,,,,,,,0,128,128,128,,,,,,,,,,,,,,,,,,,,,,,,,,,,,,,,,,,395.7754923669854,None,395.7754923669854,None,left,1,0.600001537008211,395.7754923669854,None,1,396.3919095149904,None,,,,,,,,,,,,,,,,,,,,,,,,,,,,,,,,,,,,,,,,,,,,,,,,,,,,,,,,,,,1,001,2021_Feb_24_1331,cal_abstract,2020.2.10,59.962203183115214,
,Fix1,stimuli/School/12.jpg,left,,,,,,,,,,,0,129,129,129,,,,,,,,,,,,,,,,,,,,,,,,,,,,,,,,,,,397.15822559100343,None,397.15822559100343,None,left,1,1.1807136700081173,397.15822559100343,None,1,398.3582381559827,None,,,,,,,,,,,,,,,,,,,,,,,,,,,,,,,,,,,,,,,,,,,,,,,,,,,,,,,,,,,1,001,2021_Feb_24_1331,cal_abstract,2020.2.10,59.962203183115214,
,Fix2,stimuli/Dangerous/13.jpg,right,,,,,,,,,,,0,130,130,130,,,,,,,,,,,,,,,,,,,,,,,,,,,,,,,,,,,399.10919071300304,None,399.10919071300304,None,right,1,0.8480691740114707,399.10919071300304,None,1,399.9753043089877,None,,,,,,,,,,,,,,,,,,,,,,,,,,,,,,,,,,,,,,,,,,,,,,,,,,,,,,,,,,,1,001,2021_Feb_24_1331,cal_abstract,2020.2.10,59.962203183115214,
,Fix1,stimuli/School/49.jpg,left,,,,,,,,,,,0,131,131,131,,,,,,,,,,,,,,,,,,,,,,,,,,,,,,,,,,,400.74242902197875,None,400.74242902197875,None,left,1,1.9663629840069916,400.74242902197875,None,1,402.7252837139822,None,,,,,,,,,,,,,,,,,,,,,,,,,,,,,,,,,,,,,,,,,,,,,,,,,,,,,,,,,,,1,001,2021_Feb_24_1331,cal_abstract,2020.2.10,59.962203183115214,
,Fix2,stimuli/Dangerous/2.jpg,right,,,,,,,,,,,0,132,132,132,,,,,,,,,,,,,,,,,,,,,,,,,,,,,,,,,,,403.4921066069801,None,403.4921066069801,None,right,1,0.6604663250036538,403.4921066069801,None,1,404.1752729789878,None,,,,,,,,,,,,,,,,,,,,,,,,,,,,,,,,,,,,,,,,,,,,,,,,,,,,,,,,,,,1,001,2021_Feb_24_1331,cal_abstract,2020.2.10,59.962203183115214,
,Cond,stimuli/Small/52.jpg,left,,,,,,,,,,,0,133,133,133,,,,,,,,,,,,,,,,,,,,,,,,,,,,,,,,,,,404.9421475319832,None,404.9421475319832,None,left,1,0.8889661969733424,404.9421475319832,None,1,405.8594545130036,None,,,,,,,,,,,,,,,,,,,,,,,,,,,,,,,,,,,,,,,,,,,,,,,,,,,,,,,,,,,1,001,2021_Feb_24_1331,cal_abstract,2020.2.10,59.962203183115214,
,Cond,stimuli/Small/27.jpg,right,,,,,,,,,,,0,134,134,134,,,,,,,,,,,,,,,,,,,,,,,,,,,,,,,,,,,406.62578828199184,None,406.62578828199184,None,left,0,3.4065405189758167,406.62578828199184,None,0,410.0780703869823,None,,,,,,,,,,,,,,,,,,,,,,,,,,,,,,,,,,,,,,,,,,,,,,,,,,,,,,,,,,,1,001,2021_Feb_24_1331,cal_abstract,2020.2.10,59.962203183115214,
,Fix1,stimuli/School/41.jpg,left,,,,,,,,,,,0,135,135,135,,,,,,,,,,,,,,,,,,,,,,,,,,,,,,,,,,,410.8433015749906,None,410.8433015749906,None,left,1,0.8340483619831502,410.8433015749906,None,1,411.70939873100724,None,,,,,,,,,,,,,,,,,,,,,,,,,,,,,,,,,,,,,,,,,,,,,,,,,,,,,,,,,,,1,001,2021_Feb_24_1331,cal_abstract,2020.2.10,59.962203183115214,
,Fix1,stimuli/School/40.jpg,left,,,,,,,,,,,0,136,136,136,,,,,,,,,,,,,,,,,,,,,,,,,,,,,,,,,,,412.4801528060052,None,412.4801528060052,None,left,1,0.6932679169985931,412.4801528060052,None,1,413.19234672599123,None,,,,,,,,,,,,,,,,,,,,,,,,,,,,,,,,,,,,,,,,,,,,,,,,,,,,,,,,,,,1,001,2021_Feb_24_1331,cal_abstract,2020.2.10,59.962203183115214,
,Fix2,stimuli/Dangerous/57.jpg,right,,,,,,,,,,,0,137,137,137,,,,,,,,,,,,,,,,,,,,,,,,,,,,,,,,,,,413.9584865649813,None,413.9584865649813,None,right,1,0.8139430510054808,413.9584865649813,None,1,414.79266269298387,None,,,,,,,,,,,,,,,,,,,,,,,,,,,,,,,,,,,,,,,,,,,,,,,,,,,,,,,,,,,1,001,2021_Feb_24_1331,cal_abstract,2020.2.10,59.962203183115214,
,Cond,stimuli/Small/21.jpg,left,,,,,,,,,,,0,138,138,138,,,,,,,,,,,,,,,,,,,,,,,,,,,,,,,,,,,415.56040338400635,None,415.56040338400635,None,left,1,1.291773640026804,415.56040338400635,None,1,416.8762016569963,None,,,,,,,,,,,,,,,,,,,,,,,,,,,,,,,,,,,,,,,,,,,,,,,,,,,,,,,,,,,1,001,2021_Feb_24_1331,cal_abstract,2020.2.10,59.962203183115214,
,Cond,stimuli/Small/48.jpg,right,,,,,,,,,,,0,139,139,139,,,,,,,,,,,,,,,,,,,,,,,,,,,,,,,,,,,417.64671237100265,None,417.64671237100265,None,left,0,0.7833890689944383,417.64671237100265,None,0,418.4779576250003,None,,,,,,,,,,,,,,,,,,,,,,,,,,,,,,,,,,,,,,,,,,,,,,,,,,,,,,,,,,,1,001,2021_Feb_24_1331,cal_abstract,2020.2.10,59.962203183115214,
,Fix2,stimuli/Dangerous/12.jpg,right,,,,,,,,,,,0,140,140,140,,,,,,,,,,,,,,,,,,,,,,,,,,,,,,,,,,,419.2439143770025,None,419.2439143770025,None,left,0,0.513964206998935,419.2439143770025,None,0,419.7788971950067,None,,,,,,,,,,,,,,,,,,,,,,,,,,,,,,,,,,,,,,,,,,,,,,,,,,,,,,,,,,,1,001,2021_Feb_24_1331,cal_abstract,2020.2.10,59.962203183115214,
,Fix1,stimuli/School/2.jpg,left,,,,,,,,,,,0,141,141,141,,,,,,,,,,,,,,,,,,,,,,,,,,,,,,,,,,,420.56032532500103,None,420.56032532500103,None,left,1,0.9436011170037091,420.56032532500103,None,1,421.5262195399846,None,,,,,,,,,,,,,,,,,,,,,,,,,,,,,,,,,,,,,,,,,,,,,,,,,,,,,,,,,,,1,001,2021_Feb_24_1331,cal_abstract,2020.2.10,59.962203183115214,
,Fix1,stimuli/School/16.jpg,left,,,,,,,,,,,0,142,142,142,,,,,,,,,,,,,,,,,,,,,,,,,,,,,,,,,,,422.29309845299576,None,422.29309845299576,None,right,0,1.670732686005067,422.29309845299576,None,0,423.9941056880052,None,,,,,,,,,,,,,,,,,,,,,,,,,,,,,,,,,,,,,,,,,,,,,,,,,,,,,,,,,,,1,001,2021_Feb_24_1331,cal_abstract,2020.2.10,59.962203183115214,
,Fix2,stimuli/Dangerous/23.jpg,right,,,,,,,,,,,0,143,143,143,,,,,,,,,,,,,,,,,,,,,,,,,,,,,,,,,,,424.76135980998515,None,424.76135980998515,None,left,0,0.7552220149955247,424.76135980998515,None,0,425.54246170498664,None,,,,,,,,,,,,,,,,,,,,,,,,,,,,,,,,,,,,,,,,,,,,,,,,,,,,,,,,,,,1,001,2021_Feb_24_1331,cal_abstract,2020.2.10,59.962203183115214,
,Fix2,stimuli/Dangerous/5.jpg,right,,,,,,,,,,,0,144,144,144,,,,,,,,,,,,,,,,,,,,,,,,,,,,,,,,,,,426.3121539929998,None,426.3121539929998,None,right,1,0.5174133460095618,426.3121539929998,None,1,426.8766916519962,None,,,,,,,,,,,,,,,,,,,,,,,,,,,,,,,,,,,,,,,,,,,,,,,,,,,,,,,,,,,1,001,2021_Feb_24_1331,cal_abstract,2020.2.10,59.962203183115214,
,Fix2,stimuli/Dangerous/56.jpg,right,,,,,,,,,,,0,145,145,145,,,,,,,,,,,,,,,,,,,,,,,,,,,,,,,,,,,427.6425472449919,None,427.6425472449919,None,right,1,1.0490538099838886,427.6425472449919,None,1,428.70929223299026,None,,,,,,,,,,,,,,,,,,,,,,,,,,,,,,,,,,,,,,,,,,,,,,,,,,,,,,,,,,,1,001,2021_Feb_24_1331,cal_abstract,2020.2.10,59.962203183115214,
,Cond,stimuli/Small/22.jpg,left,,,,,,,,,,,0,146,146,146,,,,,,,,,,,,,,,,,,,,,,,,,,,,,,,,,,,429.47682891300065,None,429.47682891300065,None,left,1,0.5594355229986832,429.47682891300065,None,1,430.06042955300654,None,,,,,,,,,,,,,,,,,,,,,,,,,,,,,,,,,,,,,,,,,,,,,,,,,,,,,,,,,,,1,001,2021_Feb_24_1331,cal_abstract,2020.2.10,59.962203183115214,
,Fix1,stimuli/School/7.jpg,left,,,,,,,,,,,0,147,147,147,,,,,,,,,,,,,,,,,,,,,,,,,,,,,,,,,,,430.8270209929906,None,430.8270209929906,None,left,1,1.2660361689922865,430.8270209929906,None,1,432.10924692900153,None,,,,,,,,,,,,,,,,,,,,,,,,,,,,,,,,,,,,,,,,,,,,,,,,,,,,,,,,,,,1,001,2021_Feb_24_1331,cal_abstract,2020.2.10,59.962203183115214,
,Fix1,stimuli/School/43.jpg,left,,,,,,,,,,,0,148,148,148,,,,,,,,,,,,,,,,,,,,,,,,,,,,,,,,,,,432.8770148390031,None,432.8770148390031,None,left,1,0.8000619979866315,432.8770148390031,None,1,433.6930208870035,None,,,,,,,,,,,,,,,,,,,,,,,,,,,,,,,,,,,,,,,,,,,,,,,,,,,,,,,,,,,1,001,2021_Feb_24_1331,cal_abstract,2020.2.10,59.962203183115214,
,Fix2,stimuli/Dangerous/27.jpg,right,,,,,,,,,,,0,149,149,149,,,,,,,,,,,,,,,,,,,,,,,,,,,,,,,,,,,434.4615951500018,None,434.4615951500018,None,left,0,2.2423451300128363,434.4615951500018,None,0,436.7278308189998,None,,,,,,,,,,,,,,,,,,,,,,,,,,,,,,,,,,,,,,,,,,,,,,,,,,,,,,,,,,,1,001,2021_Feb_24_1331,cal_abstract,2020.2.10,59.962203183115214,
,,,,,,,,,,,,,,,,,,,,,,,,,,,,,,,,,,,,,,,,,,,,,,,,,,,,,,,,,,,,,,,,437.4769723119971,None,c,98.40806398299173,437.4769723119971,None,,,,,,,,,,,,,,,,,,,,,,,,,,,,,,,,,,,,,,,,,,,,,,,,,,,,,1,001,2021_Feb_24_1331,cal_abstract,2020.2.10,59.962203183115214,
,,,,,,,,,,,,,,,,,,,,,,,,,,,,,,,,,,,,,,,,,,,,,,,,,,,,,,,,,,,,,,,,,,,,,,535.9005560060032,None,535.9005560060032,None,s,1.1291445980023127,535.9005560060032,None,,,,,,,,,,,,,,,,,,,,,,,,,,,,,,,,,,,,,,,,,,,,,1,001,2021_Feb_24_1331,cal_abstract,2020.2.10,59.962203183115214,
,,,,Fix2,stimuli/Healthy/38.jpg,left,,,,,,,,,,,,0,0,0,0,,,,,,,,,,,,,,,,,,,,,,,,,,,,,,,,,,,,,,,,0,,,,,,,,,,,,,,,,,537.0686138290039,None,537.0686138290039,None,right,0,2.164027824997902,537.0686138290039,None,539.2511018599907,None,,,,,,,,,,,,,,,,,,,,,,,,,,,,,,,,,,1,001,2021_Feb_24_1331,cal_abstract,2020.2.10,59.962203183115214,
,,,,Fix1,stimuli/Old/36.jpg,right,,,,,,,,,,,,0,1,1,1,,,,,,,,,,,,,,,,,,,,,,,,,,,,,,,,,,,,,,,,1,,,,,,,,,,,,,,,,,540.0186286039825,None,540.0186286039825,None,right,1,0.9006612049997784,540.0186286039825,None,540.9516504969797,None,,,,,,,,,,,,,,,,,,,,,,,,,,,,,,,,,,1,001,2021_Feb_24_1331,cal_abstract,2020.2.10,59.962203183115214,
,,,,Cond,stimuli/Wealth/56.jpg,left,,,,,,,,,,,,0,2,2,2,,,,,,,,,,,,,,,,,,,,,,,,,,,,,,,,,,,,,,,,1,,,,,,,,,,,,,,,,,541.7187705599936,None,541.7187705599936,None,left,1,1.5507640369760338,541.7187705599936,None,543.3014246039966,None,,,,,,,,,,,,,,,,,,,,,,,,,,,,,,,,,,1,001,2021_Feb_24_1331,cal_abstract,2020.2.10,59.962203183115214,
,,,,Fix1,stimuli/Old/58.jpg,right,,,,,,,,,,,,0,3,3,3,,,,,,,,,,,,,,,,,,,,,,,,,,,,,,,,,,,,,,,,0,,,,,,,,,,,,,,,,,544.0690010229882,None,544.0690010229882,None,left,0,1.0780246399808675,544.0690010229882,None,545.1682970270049,None,,,,,,,,,,,,,,,,,,,,,,,,,,,,,,,,,,1,001,2021_Feb_24_1331,cal_abstract,2020.2.10,59.962203183115214,
,,,,Fix2,stimuli/Healthy/67.jpg,left,,,,,,,,,,,,0,4,4,4,,,,,,,,,,,,,,,,,,,,,,,,,,,,,,,,,,,,,,,,1,,,,,,,,,,,,,,,,,545.9352926379943,None,545.9352926379943,None,left,1,0.5516688759962562,545.9352926379943,None,546.5180230870028,None,,,,,,,,,,,,,,,,,,,,,,,,,,,,,,,,,,1,001,2021_Feb_24_1331,cal_abstract,2020.2.10,59.962203183115214,
,,,,Fix1,stimuli/Old/40.jpg,right,,,,,,,,,,,,0,5,5,5,,,,,,,,,,,,,,,,,,,,,,,,,,,,,,,,,,,,,,,,1,,,,,,,,,,,,,,,,,547.2855556249851,None,547.2855556249851,None,right,1,0.9166821480030194,547.2855556249851,None,548.2175700929947,None,,,,,,,,,,,,,,,,,,,,,,,,,,,,,,,,,,1,001,2021_Feb_24_1331,cal_abstract,2020.2.10,59.962203183115214,
,,,,Fix1,stimuli/Old/55.jpg,right,,,,,,,,,,,,0,6,6,6,,,,,,,,,,,,,,,,,,,,,,,,,,,,,,,,,,,,,,,,0,,,,,,,,,,,,,,,,,548.9859040479932,None,548.9859040479932,None,left,0,1.6830683260050137,548.9859040479932,None,550.685529593,None,,,,,,,,,,,,,,,,,,,,,,,,,,,,,,,,,,1,001,2021_Feb_24_1331,cal_abstract,2020.2.10,59.962203183115214,
,,,,Fix2,stimuli/Healthy/37.jpg,left,,,,,,,,,,,,0,7,7,7,,,,,,,,,,,,,,,,,,,,,,,,,,,,,,,,,,,,,,,,1,,,,,,,,,,,,,,,,,551.4525622490037,None,551.4525622490037,None,left,1,0.8741307070013136,551.4525622490037,None,552.352049003006,None,,,,,,,,,,,,,,,,,,,,,,,,,,,,,,,,,,1,001,2021_Feb_24_1331,cal_abstract,2020.2.10,59.962203183115214,
,,,,Fix2,stimuli/Healthy/13.jpg,left,,,,,,,,,,,,0,8,8,8,,,,,,,,,,,,,,,,,,,,,,,,,,,,,,,,,,,,,,,,1,,,,,,,,,,,,,,,,,553.1180348139897,None,553.1180348139897,None,left,1,0.8437467769836076,553.1180348139897,None,553.9845338169835,None,,,,,,,,,,,,,,,,,,,,,,,,,,,,,,,,,,1,001,2021_Feb_24_1331,cal_abstract,2020.2.10,59.962203183115214,
,,,,Fix2,stimuli/Healthy/10.jpg,left,,,,,,,,,,,,0,9,9,9,,,,,,,,,,,,,,,,,,,,,,,,,,,,,,,,,,,,,,,,1,,,,,,,,,,,,,,,,,554.7527364199923,None,554.7527364199923,None,left,1,0.6043484260153491,554.7527364199923,None,555.3868490869936,None,,,,,,,,,,,,,,,,,,,,,,,,,,,,,,,,,,1,001,2021_Feb_24_1331,cal_abstract,2020.2.10,59.962203183115214,
,,,,Cond,stimuli/Wealth/5.jpg,right,,,,,,,,,,,,0,10,10,10,,,,,,,,,,,,,,,,,,,,,,,,,,,,,,,,,,,,,,,,1,,,,,,,,,,,,,,,,,556.1528796530038,None,556.1528796530038,None,right,1,1.4194775079959072,556.1528796530038,None,557.6014056279964,None,,,,,,,,,,,,,,,,,,,,,,,,,,,,,,,,,,1,001,2021_Feb_24_1331,cal_abstract,2020.2.10,59.962203183115214,
,,,,Fix2,stimuli/Healthy/1.jpg,left,,,,,,,,,,,,0,11,11,11,,,,,,,,,,,,,,,,,,,,,,,,,,,,,,,,,,,,,,,,1,,,,,,,,,,,,,,,,,558.3695917940058,None,558.3695917940058,None,left,1,0.9568118499882985,558.3695917940058,None,559.3529970489908,None,,,,,,,,,,,,,,,,,,,,,,,,,,,,,,,,,,1,001,2021_Feb_24_1331,cal_abstract,2020.2.10,59.962203183115214,
,,,,Fix1,stimuli/Old/20.jpg,right,,,,,,,,,,,,0,12,12,12,,,,,,,,,,,,,,,,,,,,,,,,,,,,,,,,,,,,,,,,1,,,,,,,,,,,,,,,,,560.1362266340002,None,560.1362266340002,None,right,1,0.7049509430071339,560.1362266340002,None,560.8701983710052,None,,,,,,,,,,,,,,,,,,,,,,,,,,,,,,,,,,1,001,2021_Feb_24_1331,cal_abstract,2020.2.10,59.962203183115214,
,,,,Fix2,stimuli/Healthy/4.jpg,left,,,,,,,,,,,,0,13,13,13,,,,,,,,,,,,,,,,,,,,,,,,,,,,,,,,,,,,,,,,1,,,,,,,,,,,,,,,,,561.636041588994,None,561.636041588994,None,left,1,0.5939906479907222,561.636041588994,None,562.2532634990057,None,,,,,,,,,,,,,,,,,,,,,,,,,,,,,,,,,,1,001,2021_Feb_24_1331,cal_abstract,2020.2.10,59.962203183115214,
,,,,Cond,stimuli/Wealth/41.jpg,right,,,,,,,,,,,,0,14,14,14,,,,,,,,,,,,,,,,,,,,,,,,,,,,,,,,,,,,,,,,0,,,,,,,,,,,,,,,,,563.0200162399851,None,563.0200162399851,None,left,0,2.0079105779877864,563.0200162399851,None,565.0533191750001,None,,,,,,,,,,,,,,,,,,,,,,,,,,,,,,,,,,1,001,2021_Feb_24_1331,cal_abstract,2020.2.10,59.962203183115214,
,,,,Cond,stimuli/Wealth/57.jpg,left,,,,,,,,,,,,0,15,15,15,,,,,,,,,,,,,,,,,,,,,,,,,,,,,,,,,,,,,,,,0,,,,,,,,,,,,,,,,,565.8210829089803,None,565.8210829089803,None,right,0,1.0396463960059918,565.8210829089803,None,566.8870325909811,None,,,,,,,,,,,,,,,,,,,,,,,,,,,,,,,,,,1,001,2021_Feb_24_1331,cal_abstract,2020.2.10,59.962203183115214,
,,,,Fix2,stimuli/Healthy/58.jpg,left,,,,,,,,,,,,0,16,16,16,,,,,,,,,,,,,,,,,,,,,,,,,,,,,,,,,,,,,,,,1,,,,,,,,,,,,,,,,,567.6369368059968,None,567.6369368059968,None,left,1,1.6067873789870646,567.6369368059968,None,569.2743640689878,None,,,,,,,,,,,,,,,,,,,,,,,,,,,,,,,,,,1,001,2021_Feb_24_1331,cal_abstract,2020.2.10,59.962203183115214,
,,,,Fix1,stimuli/Old/49.jpg,right,,,,,,,,,,,,0,17,17,17,,,,,,,,,,,,,,,,,,,,,,,,,,,,,,,,,,,,,,,,1,,,,,,,,,,,,,,,,,570.0534731200023,None,570.0534731200023,None,right,1,1.2529898659850005,570.0534731200023,None,571.3359196829842,None,,,,,,,,,,,,,,,,,,,,,,,,,,,,,,,,,,1,001,2021_Feb_24_1331,cal_abstract,2020.2.10,59.962203183115214,
,,,,Fix1,stimuli/Old/29.jpg,right,,,,,,,,,,,,0,18,18,18,,,,,,,,,,,,,,,,,,,,,,,,,,,,,,,,,,,,,,,,1,,,,,,,,,,,,,,,,,572.1040361949999,None,572.1040361949999,None,right,1,2.296286049997434,572.1040361949999,None,574.4206644459919,None,,,,,,,,,,,,,,,,,,,,,,,,,,,,,,,,,,1,001,2021_Feb_24_1331,cal_abstract,2020.2.10,59.962203183115214,
,,,,Cond,stimuli/Wealth/26.jpg,left,,,,,,,,,,,,0,19,19,19,,,,,,,,,,,,,,,,,,,,,,,,,,,,,,,,,,,,,,,,0,,,,,,,,,,,,,,,,,575.1882970870065,None,575.1882970870065,None,right,0,1.3289129580080044,575.1882970870065,None,576.5359921159979,None,,,,,,,,,,,,,,,,,,,,,,,,,,,,,,,,,,1,001,2021_Feb_24_1331,cal_abstract,2020.2.10,59.962203183115214,
,,,,Fix1,stimuli/Old/37.jpg,right,,,,,,,,,,,,0,20,20,20,,,,,,,,,,,,,,,,,,,,,,,,,,,,,,,,,,,,,,,,1,,,,,,,,,,,,,,,,,577.304643593001,None,577.304643593001,None,right,1,0.6595528890029527,577.304643593001,None,577.9877904769965,None,,,,,,,,,,,,,,,,,,,,,,,,,,,,,,,,,,1,001,2021_Feb_24_1331,cal_abstract,2020.2.10,59.962203183115214,
,,,,Fix2,stimuli/Healthy/42.jpg,left,,,,,,,,,,,,0,21,21,21,,,,,,,,,,,,,,,,,,,,,,,,,,,,,,,,,,,,,,,,1,,,,,,,,,,,,,,,,,578.7535914040054,None,578.7535914040054,None,left,1,0.8435031090048142,578.7535914040054,None,579.6208889779809,None,,,,,,,,,,,,,,,,,,,,,,,,,,,,,,,,,,1,001,2021_Feb_24_1331,cal_abstract,2020.2.10,59.962203183115214,
,,,,Fix2,stimuli/Healthy/55.jpg,left,,,,,,,,,,,,0,22,22,22,,,,,,,,,,,,,,,,,,,,,,,,,,,,,,,,,,,,,,,,1,,,,,,,,,,,,,,,,,580.3900327330048,None,580.3900327330048,None,left,1,0.6819023020216264,580.3900327330048,None,581.1042039029999,None,,,,,,,,,,,,,,,,,,,,,,,,,,,,,,,,,,1,001,2021_Feb_24_1331,cal_abstract,2020.2.10,59.962203183115214,
,,,,Fix1,stimuli/Old/15.jpg,right,,,,,,,,,,,,0,23,23,23,,,,,,,,,,,,,,,,,,,,,,,,,,,,,,,,,,,,,,,,1,,,,,,,,,,,,,,,,,581.8879049529787,None,581.8879049529787,None,right,1,1.0118653240206186,581.8879049529787,None,582.9207280869887,None,,,,,,,,,,,,,,,,,,,,,,,,,,,,,,,,,,1,001,2021_Feb_24_1331,cal_abstract,2020.2.10,59.962203183115214,
,,,,Fix2,stimuli/Healthy/8.jpg,left,,,,,,,,,,,,0,24,24,24,,,,,,,,,,,,,,,,,,,,,,,,,,,,,,,,,,,,,,,,1,,,,,,,,,,,,,,,,,583.6888671229826,None,583.6888671229826,None,left,1,0.7668019260163419,583.6888671229826,None,584.4864426499989,None,,,,,,,,,,,,,,,,,,,,,,,,,,,,,,,,,,1,001,2021_Feb_24_1331,cal_abstract,2020.2.10,59.962203183115214,
,,,,Cond,stimuli/Wealth/17.jpg,right,,,,,,,,,,,,0,25,25,25,,,,,,,,,,,,,,,,,,,,,,,,,,,,,,,,,,,,,,,,1,,,,,,,,,,,,,,,,,585.2551524099836,None,585.2551524099836,None,right,1,1.4827854999748524,585.2551524099836,None,586.7545655469876,None,,,,,,,,,,,,,,,,,,,,,,,,,,,,,,,,,,1,001,2021_Feb_24_1331,cal_abstract,2020.2.10,59.962203183115214,
,,,,Cond,stimuli/Wealth/27.jpg,left,,,,,,,,,,,,0,26,26,26,,,,,,,,,,,,,,,,,,,,,,,,,,,,,,,,,,,,,,,,0,,,,,,,,,,,,,,,,,587.5224152040028,None,587.5224152040028,None,right,0,1.0010521500080358,587.5224152040028,None,588.5551682779915,None,,,,,,,,,,,,,,,,,,,,,,,,,,,,,,,,,,1,001,2021_Feb_24_1331,cal_abstract,2020.2.10,59.962203183115214,
,,,,Cond,stimuli/Wealth/0.jpg,right,,,,,,,,,,,,0,27,27,27,,,,,,,,,,,,,,,,,,,,,,,,,,,,,,,,,,,,,,,,1,,,,,,,,,,,,,,,,,589.3216715430026,None,589.3216715430026,None,right,1,4.772259362012846,589.3216715430026,None,594.122204401996,None,,,,,,,,,,,,,,,,,,,,,,,,,,,,,,,,,,1,001,2021_Feb_24_1331,cal_abstract,2020.2.10,59.962203183115214,
,,,,Fix2,stimuli/Healthy/5.jpg,left,,,,,,,,,,,,0,28,28,28,,,,,,,,,,,,,,,,,,,,,,,,,,,,,,,,,,,,,,,,1,,,,,,,,,,,,,,,,,594.8891047649959,None,594.8891047649959,None,left,1,0.532423770026071,594.8891047649959,None,595.4381623039953,None,,,,,,,,,,,,,,,,,,,,,,,,,,,,,,,,,,1,001,2021_Feb_24_1331,cal_abstract,2020.2.10,59.962203183115214,
,,,,Fix2,stimuli/Healthy/29.jpg,left,,,,,,,,,,,,0,29,29,29,,,,,,,,,,,,,,,,,,,,,,,,,,,,,,,,,,,,,,,,1,,,,,,,,,,,,,,,,,596.2056549989793,None,596.2056549989793,None,left,1,0.4637070060125552,596.2056549989793,None,596.6895402990049,None,,,,,,,,,,,,,,,,,,,,,,,,,,,,,,,,,,1,001,2021_Feb_24_1331,cal_abstract,2020.2.10,59.962203183115214,
,,,,Cond,stimuli/Wealth/53.jpg,right,,,,,,,,,,,,0,30,30,30,,,,,,,,,,,,,,,,,,,,,,,,,,,,,,,,,,,,,,,,1,,,,,,,,,,,,,,,,,597.4549133569817,None,597.4549133569817,None,right,1,1.9374190760136116,597.4549133569817,None,599.4224509829946,None,,,,,,,,,,,,,,,,,,,,,,,,,,,,,,,,,,1,001,2021_Feb_24_1331,cal_abstract,2020.2.10,59.962203183115214,
,,,,Fix1,stimuli/Old/2.jpg,right,,,,,,,,,,,,0,31,31,31,,,,,,,,,,,,,,,,,,,,,,,,,,,,,,,,,,,,,,,,1,,,,,,,,,,,,,,,,,600.1890019949933,None,600.1890019949933,None,right,1,1.0061648550035898,600.1890019949933,None,601.2227353880007,None,,,,,,,,,,,,,,,,,,,,,,,,,,,,,,,,,,1,001,2021_Feb_24_1331,cal_abstract,2020.2.10,59.962203183115214,
,,,,Fix2,stimuli/Healthy/7.jpg,left,,,,,,,,,,,,0,32,32,32,,,,,,,,,,,,,,,,,,,,,,,,,,,,,,,,,,,,,,,,1,,,,,,,,,,,,,,,,,601.9888481609814,None,601.9888481609814,None,left,1,0.7011181350098923,601.9888481609814,None,602.7226770849957,None,,,,,,,,,,,,,,,,,,,,,,,,,,,,,,,,,,1,001,2021_Feb_24_1331,cal_abstract,2020.2.10,59.962203183115214,
,,,,Fix1,stimuli/Old/7.jpg,right,,,,,,,,,,,,0,33,33,33,,,,,,,,,,,,,,,,,,,,,,,,,,,,,,,,,,,,,,,,1,,,,,,,,,,,,,,,,,603.4739208899846,None,603.4739208899846,None,right,1,0.8719294760085177,603.4739208899846,None,604.3728100199951,None,,,,,,,,,,,,,,,,,,,,,,,,,,,,,,,,,,1,001,2021_Feb_24_1331,cal_abstract,2020.2.10,59.962203183115214,
,,,,Cond,stimuli/Wealth/10.jpg,left,,,,,,,,,,,,0,34,34,34,,,,,,,,,,,,,,,,,,,,,,,,,,,,,,,,,,,,,,,,0,,,,,,,,,,,,,,,,,605.138932123984,None,605.138932123984,None,right,0,1.0049113320128527,605.138932123984,None,606.172760047979,None,,,,,,,,,,,,,,,,,,,,,,,,,,,,,,,,,,1,001,2021_Feb_24_1331,cal_abstract,2020.2.10,59.962203183115214,
,,,,Fix2,stimuli/Healthy/68.jpg,left,,,,,,,,,,,,0,35,35,35,,,,,,,,,,,,,,,,,,,,,,,,,,,,,,,,,,,,,,,,1,,,,,,,,,,,,,,,,,606.9392974780058,None,606.9392974780058,None,left,1,1.6903644959966186,606.9392974780058,None,608.6557622810069,None,,,,,,,,,,,,,,,,,,,,,,,,,,,,,,,,,,1,001,2021_Feb_24_1331,cal_abstract,2020.2.10,59.962203183115214,
,,,,Cond,stimuli/Wealth/24.jpg,right,,,,,,,,,,,,0,36,36,36,,,,,,,,,,,,,,,,,,,,,,,,,,,,,,,,,,,,,,,,1,,,,,,,,,,,,,,,,,609.4227513499791,None,609.4227513499791,None,right,1,1.3219192550168373,609.4227513499791,None,610.7733757669921,None,,,,,,,,,,,,,,,,,,,,,,,,,,,,,,,,,,1,001,2021_Feb_24_1331,cal_abstract,2020.2.10,59.962203183115214,
,,,,Cond,stimuli/Wealth/12.jpg,left,,,,,,,,,,,,0,37,37,37,,,,,,,,,,,,,,,,,,,,,,,,,,,,,,,,,,,,,,,,0,,,,,,,,,,,,,,,,,611.5398323069967,None,611.5398323069967,None,right,0,0.8896069780166727,611.5398323069967,None,612.4556702849804,None,,,,,,,,,,,,,,,,,,,,,,,,,,,,,,,,,,1,001,2021_Feb_24_1331,cal_abstract,2020.2.10,59.962203183115214,
,,,,Fix2,stimuli/Healthy/20.jpg,left,,,,,,,,,,,,0,38,38,38,,,,,,,,,,,,,,,,,,,,,,,,,,,,,,,,,,,,,,,,1,,,,,,,,,,,,,,,,,613.2234049319813,None,613.2234049319813,None,left,1,0.9248995810048655,613.2234049319813,None,614.1731154299923,None,,,,,,,,,,,,,,,,,,,,,,,,,,,,,,,,,,1,001,2021_Feb_24_1331,cal_abstract,2020.2.10,59.962203183115214,
,,,,Fix2,stimuli/Healthy/44.jpg,left,,,,,,,,,,,,0,39,39,39,,,,,,,,,,,,,,,,,,,,,,,,,,,,,,,,,,,,,,,,1,,,,,,,,,,,,,,,,,614.9244527719857,None,614.9244527719857,None,left,1,0.5208252549928147,614.9244527719857,None,615.4733336569916,None,,,,,,,,,,,,,,,,,,,,,,,,,,,,,,,,,,1,001,2021_Feb_24_1331,cal_abstract,2020.2.10,59.962203183115214,
,,,,Fix2,stimuli/Healthy/27.jpg,left,,,,,,,,,,,,0,40,40,40,,,,,,,,,,,,,,,,,,,,,,,,,,,,,,,,,,,,,,,,1,,,,,,,,,,,,,,,,,616.2391262129822,None,616.2391262129822,None,left,1,0.6820754669897724,616.2391262129822,None,616.9443962890073,None,,,,,,,,,,,,,,,,,,,,,,,,,,,,,,,,,,1,001,2021_Feb_24_1331,cal_abstract,2020.2.10,59.962203183115214,
,,,,Fix2,stimuli/Healthy/59.jpg,left,,,,,,,,,,,,0,41,41,41,,,,,,,,,,,,,,,,,,,,,,,,,,,,,,,,,,,,,,,,1,,,,,,,,,,,,,,,,,617.7235915040073,None,617.7235915040073,None,left,1,0.6006316760031041,617.7235915040073,None,618.3399344740028,None,,,,,,,,,,,,,,,,,,,,,,,,,,,,,,,,,,1,001,2021_Feb_24_1331,cal_abstract,2020.2.10,59.962203183115214,
,,,,Fix1,stimuli/Old/46.jpg,right,,,,,,,,,,,,0,42,42,42,,,,,,,,,,,,,,,,,,,,,,,,,,,,,,,,,,,,,,,,1,,,,,,,,,,,,,,,,,619.1077105189906,None,619.1077105189906,None,right,1,1.5461905270058196,619.1077105189906,None,620.6773339799838,None,,,,,,,,,,,,,,,,,,,,,,,,,,,,,,,,,,1,001,2021_Feb_24_1331,cal_abstract,2020.2.10,59.962203183115214,
,,,,Fix2,stimuli/Healthy/39.jpg,left,,,,,,,,,,,,0,43,43,43,,,,,,,,,,,,,,,,,,,,,,,,,,,,,,,,,,,,,,,,1,,,,,,,,,,,,,,,,,621.4568008259812,None,621.4568008259812,None,left,1,0.5920480850036256,621.4568008259812,None,622.0739161109959,None,,,,,,,,,,,,,,,,,,,,,,,,,,,,,,,,,,1,001,2021_Feb_24_1331,cal_abstract,2020.2.10,59.962203183115214,
,,,,Fix1,stimuli/Old/38.jpg,right,,,,,,,,,,,,0,44,44,44,,,,,,,,,,,,,,,,,,,,,,,,,,,,,,,,,,,,,,,,1,,,,,,,,,,,,,,,,,622.8405985279824,None,622.8405985279824,None,right,1,1.1031487270083744,622.8405985279824,None,623.9736185910006,None,,,,,,,,,,,,,,,,,,,,,,,,,,,,,,,,,,1,001,2021_Feb_24_1331,cal_abstract,2020.2.10,59.962203183115214,
,,,,Fix2,stimuli/Healthy/66.jpg,left,,,,,,,,,,,,0,45,45,45,,,,,,,,,,,,,,,,,,,,,,,,,,,,,,,,,,,,,,,,1,,,,,,,,,,,,,,,,,624.7253965429845,None,624.7253965429845,None,left,1,0.7611127429991029,624.7253965429845,None,625.5077280399855,None,,,,,,,,,,,,,,,,,,,,,,,,,,,,,,,,,,1,001,2021_Feb_24_1331,cal_abstract,2020.2.10,59.962203183115214,
,,,,Fix1,stimuli/Old/17.jpg,right,,,,,,,,,,,,0,46,46,46,,,,,,,,,,,,,,,,,,,,,,,,,,,,,,,,,,,,,,,,1,,,,,,,,,,,,,,,,,626.2730065590004,None,626.2730065590004,None,right,1,6.853017677000025,626.2730065590004,None,633.1572277609957,None,,,,,,,,,,,,,,,,,,,,,,,,,,,,,,,,,,1,001,2021_Feb_24_1331,cal_abstract,2020.2.10,59.962203183115214,
,,,,Fix1,stimuli/Old/14.jpg,right,,,,,,,,,,,,0,47,47,47,,,,,,,,,,,,,,,,,,,,,,,,,,,,,,,,,,,,,,,,1,,,,,,,,,,,,,,,,,633.9245435549819,None,633.9245435549819,None,right,1,0.937020154990023,633.9245435549819,None,634.8914627839986,None,,,,,,,,,,,,,,,,,,,,,,,,,,,,,,,,,,1,001,2021_Feb_24_1331,cal_abstract,2020.2.10,59.962203183115214,
,,,,Cond,stimuli/Wealth/43.jpg,left,,,,,,,,,,,,0,48,48,48,,,,,,,,,,,,,,,,,,,,,,,,,,,,,,,,,,,,,,,,0,,,,,,,,,,,,,,,,,635.657911761984,None,635.657911761984,None,right,0,1.1464541539899074,635.657911761984,None,636.8252528739977,None,,,,,,,,,,,,,,,,,,,,,,,,,,,,,,,,,,1,001,2021_Feb_24_1331,cal_abstract,2020.2.10,59.962203183115214,
,,,,Fix2,stimuli/Healthy/41.jpg,left,,,,,,,,,,,,0,49,49,49,,,,,,,,,,,,,,,,,,,,,,,,,,,,,,,,,,,,,,,,1,,,,,,,,,,,,,,,,,637.5919177900068,None,637.5919177900068,None,left,1,0.8033438370039221,637.5919177900068,None,638.4253673710045,None,,,,,,,,,,,,,,,,,,,,,,,,,,,,,,,,,,1,001,2021_Feb_24_1331,cal_abstract,2020.2.10,59.962203183115214,
,,,,Cond,stimuli/Wealth/40.jpg,right,,,,,,,,,,,,0,50,50,50,,,,,,,,,,,,,,,,,,,,,,,,,,,,,,,,,,,,,,,,1,,,,,,,,,,,,,,,,,639.1750785079785,None,639.1750785079785,None,right,1,1.5299891160102561,639.1750785079785,None,640.7256177429808,None,,,,,,,,,,,,,,,,,,,,,,,,,,,,,,,,,,1,001,2021_Feb_24_1331,cal_abstract,2020.2.10,59.962203183115214,
,,,,Fix1,stimuli/Old/43.jpg,right,,,,,,,,,,,,0,51,51,51,,,,,,,,,,,,,,,,,,,,,,,,,,,,,,,,,,,,,,,,0,,,,,,,,,,,,,,,,,641.4922100440017,None,641.4922100440017,None,left,0,2.0660991269978695,641.4922100440017,None,643.5748736579844,None,,,,,,,,,,,,,,,,,,,,,,,,,,,,,,,,,,1,001,2021_Feb_24_1331,cal_abstract,2020.2.10,59.962203183115214,
,,,,Cond,stimuli/Wealth/44.jpg,left,,,,,,,,,,,,0,52,52,52,,,,,,,,,,,,,,,,,,,,,,,,,,,,,,,,,,,,,,,,0,,,,,,,,,,,,,,,,,644.3425525869825,None,644.3425525869825,None,right,0,1.0112765700032469,644.3425525869825,None,645.3752386309789,None,,,,,,,,,,,,,,,,,,,,,,,,,,,,,,,,,,1,001,2021_Feb_24_1331,cal_abstract,2020.2.10,59.962203183115214,
,,,,Fix1,stimuli/Old/10.jpg,right,,,,,,,,,,,,0,53,53,53,,,,,,,,,,,,,,,,,,,,,,,,,,,,,,,,,,,,,,,,1,,,,,,,,,,,,,,,,,646.1407070900023,None,646.1407070900023,None,right,1,0.9830863740062341,646.1407070900023,None,647.1425185189873,None,,,,,,,,,,,,,,,,,,,,,,,,,,,,,,,,,,1,001,2021_Feb_24_1331,cal_abstract,2020.2.10,59.962203183115214,
,,,,Fix1,stimuli/Old/3.jpg,right,,,,,,,,,,,,0,54,54,54,,,,,,,,,,,,,,,,,,,,,,,,,,,,,,,,,,,,,,,,1,,,,,,,,,,,,,,,,,647.9084664989787,None,647.9084664989787,None,right,1,1.0112451860040892,647.9084664989787,None,648.9418840739818,None,,,,,,,,,,,,,,,,,,,,,,,,,,,,,,,,,,1,001,2021_Feb_24_1331,cal_abstract,2020.2.10,59.962203183115214,
,,,,Cond,stimuli/Wealth/13.jpg,left,,,,,,,,,,,,0,55,55,55,,,,,,,,,,,,,,,,,,,,,,,,,,,,,,,,,,,,,,,,0,,,,,,,,,,,,,,,,,649.7107818769873,None,649.7107818769873,None,right,0,0.9828238969785161,649.7107818769873,None,650.7097262799798,None,,,,,,,,,,,,,,,,,,,,,,,,,,,,,,,,,,1,001,2021_Feb_24_1331,cal_abstract,2020.2.10,59.962203183115214,
,,,,Cond,stimuli/Wealth/14.jpg,right,,,,,,,,,,,,0,56,56,56,,,,,,,,,,,,,,,,,,,,,,,,,,,,,,,,,,,,,,,,0,,,,,,,,,,,,,,,,,651.4917033329839,None,651.4917033329839,None,left,0,0.693779260996962,651.4917033329839,None,652.2097614999802,None,,,,,,,,,,,,,,,,,,,,,,,,,,,,,,,,,,1,001,2021_Feb_24_1331,cal_abstract,2020.2.10,59.962203183115214,
,,,,Fix2,stimuli/Healthy/65.jpg,left,,,,,,,,,,,,0,57,57,57,,,,,,,,,,,,,,,,,,,,,,,,,,,,,,,,,,,,,,,,1,,,,,,,,,,,,,,,,,652.9758096050064,None,652.9758096050064,None,left,1,0.8774529049987905,652.9758096050064,None,653.8755241619947,None,,,,,,,,,,,,,,,,,,,,,,,,,,,,,,,,,,1,001,2021_Feb_24_1331,cal_abstract,2020.2.10,59.962203183115214,
,,,,Cond,stimuli/Wealth/45.jpg,right,,,,,,,,,,,,0,58,58,58,,,,,,,,,,,,,,,,,,,,,,,,,,,,,,,,,,,,,,,,0,,,,,,,,,,,,,,,,,654.6427593370026,None,654.6427593370026,None,left,0,0.6308778619859368,654.6427593370026,None,655.2926106310042,None,,,,,,,,,,,,,,,,,,,,,,,,,,,,,,,,,,1,001,2021_Feb_24_1331,cal_abstract,2020.2.10,59.962203183115214,
,,,,Cond,stimuli/Wealth/31.jpg,left,,,,,,,,,,,,0,59,59,59,,,,,,,,,,,,,,,,,,,,,,,,,,,,,,,,,,,,,,,,1,,,,,,,,,,,,,,,,,656.0602097859955,None,656.0602097859955,None,left,1,0.8691179899906274,656.0602097859955,None,656.9592098459834,None,,,,,,,,,,,,,,,,,,,,,,,,,,,,,,,,,,1,001,2021_Feb_24_1331,cal_abstract,2020.2.10,59.962203183115214,
,,,,Cond,stimuli/Wealth/46.jpg,right,,,,,,,,,,,,0,60,60,60,,,,,,,,,,,,,,,,,,,,,,,,,,,,,,,,,,,,,,,,0,,,,,,,,,,,,,,,,,657.7264393549995,None,657.7264393549995,None,left,0,1.0195210020174272,657.7264393549995,None,658.7762856439804,None,,,,,,,,,,,,,,,,,,,,,,,,,,,,,,,,,,1,001,2021_Feb_24_1331,cal_abstract,2020.2.10,59.962203183115214,
,,,,Cond,stimuli/Wealth/52.jpg,left,,,,,,,,,,,,0,61,61,61,,,,,,,,,,,,,,,,,,,,,,,,,,,,,,,,,,,,,,,,0,,,,,,,,,,,,,,,,,659.5435231259908,None,659.5435231259908,None,right,0,1.6374387020186987,659.5435231259908,None,661.2105357789842,None,,,,,,,,,,,,,,,,,,,,,,,,,,,,,,,,,,1,001,2021_Feb_24_1331,cal_abstract,2020.2.10,59.962203183115214,
,,,,Fix2,stimuli/Healthy/51.jpg,left,,,,,,,,,,,,0,62,62,62,,,,,,,,,,,,,,,,,,,,,,,,,,,,,,,,,,,,,,,,1,,,,,,,,,,,,,,,,,661.9763742960058,None,661.9763742960058,None,left,1,0.7378107910044491,661.9763742960058,None,662.743599843001,None,,,,,,,,,,,,,,,,,,,,,,,,,,,,,,,,,,1,001,2021_Feb_24_1331,cal_abstract,2020.2.10,59.962203183115214,
,,,,Fix2,stimuli/Healthy/32.jpg,left,,,,,,,,,,,,0,63,63,63,,,,,,,,,,,,,,,,,,,,,,,,,,,,,,,,,,,,,,,,1,,,,,,,,,,,,,,,,,663.5101818559924,None,663.5101818559924,None,left,1,0.5649940150033217,663.5101818559924,None,664.0936526820005,None,,,,,,,,,,,,,,,,,,,,,,,,,,,,,,,,,,1,001,2021_Feb_24_1331,cal_abstract,2020.2.10,59.962203183115214,
,,,,Fix2,stimuli/Healthy/45.jpg,left,,,,,,,,,,,,0,64,64,64,,,,,,,,,,,,,,,,,,,,,,,,,,,,,,,,,,,,,,,,1,,,,,,,,,,,,,,,,,664.8606222409871,None,664.8606222409871,None,left,1,0.4891383729991503,664.8606222409871,None,665.3759082070028,None,,,,,,,,,,,,,,,,,,,,,,,,,,,,,,,,,,1,001,2021_Feb_24_1331,cal_abstract,2020.2.10,59.962203183115214,
,,,,Cond,stimuli/Wealth/19.jpg,right,,,,,,,,,,,,0,65,65,65,,,,,,,,,,,,,,,,,,,,,,,,,,,,,,,,,,,,,,,,1,,,,,,,,,,,,,,,,,666.143949905003,None,666.143949905003,None,right,1,0.9427183369989507,666.143949905003,None,667.110559608991,None,,,,,,,,,,,,,,,,,,,,,,,,,,,,,,,,,,1,001,2021_Feb_24_1331,cal_abstract,2020.2.10,59.962203183115214,
,,,,Fix1,stimuli/Old/8.jpg,right,,,,,,,,,,,,0,66,66,66,,,,,,,,,,,,,,,,,,,,,,,,,,,,,,,,,,,,,,,,0,,,,,,,,,,,,,,,,,667.8772888869862,None,667.8772888869862,None,left,0,0.6713167749985587,667.8772888869862,None,668.5772965119977,None,,,,,,,,,,,,,,,,,,,,,,,,,,,,,,,,,,1,001,2021_Feb_24_1331,cal_abstract,2020.2.10,59.962203183115214,
,,,,Cond,stimuli/Wealth/22.jpg,left,,,,,,,,,,,,0,67,67,67,,,,,,,,,,,,,,,,,,,,,,,,,,,,,,,,,,,,,,,,0,,,,,,,,,,,,,,,,,669.3439167960023,None,669.3439167960023,None,right,0,0.9283290890161879,669.3439167960023,None,670.2937615980045,None,,,,,,,,,,,,,,,,,,,,,,,,,,,,,,,,,,1,001,2021_Feb_24_1331,cal_abstract,2020.2.10,59.962203183115214,
,,,,Cond,stimuli/Wealth/11.jpg,right,,,,,,,,,,,,0,68,68,68,,,,,,,,,,,,,,,,,,,,,,,,,,,,,,,,,,,,,,,,1,,,,,,,,,,,,,,,,,671.0614725819905,None,671.0614725819905,None,right,1,0.6761072550143581,671.0614725819905,None,671.7596126080025,None,,,,,,,,,,,,,,,,,,,,,,,,,,,,,,,,,,1,001,2021_Feb_24_1331,cal_abstract,2020.2.10,59.962203183115214,
,,,,Fix2,stimuli/Healthy/43.jpg,left,,,,,,,,,,,,0,69,69,69,,,,,,,,,,,,,,,,,,,,,,,,,,,,,,,,,,,,,,,,1,,,,,,,,,,,,,,,,,672.5260005150049,None,672.5260005150049,None,left,1,1.0641893949941732,672.5260005150049,None,673.6113832179981,None,,,,,,,,,,,,,,,,,,,,,,,,,,,,,,,,,,1,001,2021_Feb_24_1331,cal_abstract,2020.2.10,59.962203183115214,
,,,,Fix2,stimuli/Healthy/6.jpg,left,,,,,,,,,,,,0,70,70,70,,,,,,,,,,,,,,,,,,,,,,,,,,,,,,,,,,,,,,,,1,,,,,,,,,,,,,,,,,674.3776205369795,None,674.3776205369795,None,left,1,0.9244609710003715,674.3776205369795,None,675.327650185005,None,,,,,,,,,,,,,,,,,,,,,,,,,,,,,,,,,,1,001,2021_Feb_24_1331,cal_abstract,2020.2.10,59.962203183115214,
,,,,Fix1,stimuli/Old/21.jpg,right,,,,,,,,,,,,0,71,71,71,,,,,,,,,,,,,,,,,,,,,,,,,,,,,,,,,,,,,,,,1,,,,,,,,,,,,,,,,,676.0937203390058,None,676.0937203390058,None,right,1,1.0543530330178328,676.0937203390058,None,677.1773779309879,None,,,,,,,,,,,,,,,,,,,,,,,,,,,,,,,,,,1,001,2021_Feb_24_1331,cal_abstract,2020.2.10,59.962203183115214,
,,,,Fix2,stimuli/Healthy/9.jpg,left,,,,,,,,,,,,0,72,72,72,,,,,,,,,,,,,,,,,,,,,,,,,,,,,,,,,,,,,,,,1,,,,,,,,,,,,,,,,,677.9445018359984,None,677.9445018359984,None,left,1,0.8242964860110078,677.9445018359984,None,678.7943358719931,None,,,,,,,,,,,,,,,,,,,,,,,,,,,,,,,,,,1,001,2021_Feb_24_1331,cal_abstract,2020.2.10,59.962203183115214,
,,,,Cond,stimuli/Wealth/51.jpg,right,,,,,,,,,,,,0,73,73,73,,,,,,,,,,,,,,,,,,,,,,,,,,,,,,,,,,,,,,,,0,,,,,,,,,,,,,,,,,679.561567073979,None,679.561567073979,None,left,0,1.2843183410004713,679.561567073979,None,680.8623303509958,None,,,,,,,,,,,,,,,,,,,,,,,,,,,,,,,,,,1,001,2021_Feb_24_1331,cal_abstract,2020.2.10,59.962203183115214,
,,,,Fix1,stimuli/Old/54.jpg,right,,,,,,,,,,,,0,74,74,74,,,,,,,,,,,,,,,,,,,,,,,,,,,,,,,,,,,,,,,,1,,,,,,,,,,,,,,,,,681.6279682680033,None,681.6279682680033,None,right,1,0.751885713019874,681.6279682680033,None,682.3952115779975,None,,,,,,,,,,,,,,,,,,,,,,,,,,,,,,,,,,1,001,2021_Feb_24_1331,cal_abstract,2020.2.10,59.962203183115214,
,,,,Fix2,stimuli/Healthy/53.jpg,left,,,,,,,,,,,,0,75,75,75,,,,,,,,,,,,,,,,,,,,,,,,,,,,,,,,,,,,,,,,1,,,,,,,,,,,,,,,,,683.1616051110032,None,683.1616051110032,None,left,1,0.6991596599982586,683.1616051110032,None,683.8781226679857,None,,,,,,,,,,,,,,,,,,,,,,,,,,,,,,,,,,1,001,2021_Feb_24_1331,cal_abstract,2020.2.10,59.962203183115214,
,,,,Cond,stimuli/Wealth/49.jpg,right,,,,,,,,,,,,0,76,76,76,,,,,,,,,,,,,,,,,,,,,,,,,,,,,,,,,,,,,,,,1,,,,,,,,,,,,,,,,,684.6618003849871,None,684.6618003849871,None,right,1,0.7236838980170432,684.6618003849871,None,685.414065288991,None,,,,,,,,,,,,,,,,,,,,,,,,,,,,,,,,,,1,001,2021_Feb_24_1331,cal_abstract,2020.2.10,59.962203183115214,
,,,,Fix1,stimuli/Old/0.jpg,right,,,,,,,,,,,,0,77,77,77,,,,,,,,,,,,,,,,,,,,,,,,,,,,,,,,,,,,,,,,1,,,,,,,,,,,,,,,,,686.194639813999,None,686.194639813999,None,right,1,1.3738418080029078,686.194639813999,None,687.5946745069814,None,,,,,,,,,,,,,,,,,,,,,,,,,,,,,,,,,,1,001,2021_Feb_24_1331,cal_abstract,2020.2.10,59.962203183115214,
,,,,Cond,stimuli/Wealth/28.jpg,left,,,,,,,,,,,,0,78,78,78,,,,,,,,,,,,,,,,,,,,,,,,,,,,,,,,,,,,,,,,1,,,,,,,,,,,,,,,,,688.3619481359783,None,688.3619481359783,None,left,1,1.424175516993273,688.3619481359783,None,689.8155741619994,None,,,,,,,,,,,,,,,,,,,,,,,,,,,,,,,,,,1,001,2021_Feb_24_1331,cal_abstract,2020.2.10,59.962203183115214,
,,,,Cond,stimuli/Wealth/20.jpg,right,,,,,,,,,,,,0,79,79,79,,,,,,,,,,,,,,,,,,,,,,,,,,,,,,,,,,,,,,,,0,,,,,,,,,,,,,,,,,690.578637603001,None,690.578637603001,None,left,0,0.7066575669741724,690.578637603001,None,691.3120786399813,None,,,,,,,,,,,,,,,,,,,,,,,,,,,,,,,,,,1,001,2021_Feb_24_1331,cal_abstract,2020.2.10,59.962203183115214,
,,,,Fix1,stimuli/Old/47.jpg,right,,,,,,,,,,,,0,80,80,80,,,,,,,,,,,,,,,,,,,,,,,,,,,,,,,,,,,,,,,,1,,,,,,,,,,,,,,,,,692.0784802289854,None,692.0784802289854,None,right,1,2.725389407016337,692.0784802289854,None,694.8287708330026,None,,,,,,,,,,,,,,,,,,,,,,,,,,,,,,,,,,1,001,2021_Feb_24_1331,cal_abstract,2020.2.10,59.962203183115214,
,,,,Cond,stimuli/Wealth/55.jpg,left,,,,,,,,,,,,0,81,81,81,,,,,,,,,,,,,,,,,,,,,,,,,,,,,,,,,,,,,,,,0,,,,,,,,,,,,,,,,,695.5951809279795,None,695.5951809279795,None,right,0,0.8208173949969932,695.5951809279795,None,696.4462914519827,None,,,,,,,,,,,,,,,,,,,,,,,,,,,,,,,,,,1,001,2021_Feb_24_1331,cal_abstract,2020.2.10,59.962203183115214,
,,,,Cond,stimuli/Wealth/37.jpg,right,,,,,,,,,,,,0,82,82,82,,,,,,,,,,,,,,,,,,,,,,,,,,,,,,,,,,,,,,,,0,,,,,,,,,,,,,,,,,697.2122701290064,None,697.2122701290064,None,left,0,0.6178388720145449,697.2122701290064,None,697.8628798910067,None,,,,,,,,,,,,,,,,,,,,,,,,,,,,,,,,,,1,001,2021_Feb_24_1331,cal_abstract,2020.2.10,59.962203183115214,
,,,,Fix2,stimuli/Healthy/3.jpg,left,,,,,,,,,,,,0,83,83,83,,,,,,,,,,,,,,,,,,,,,,,,,,,,,,,,,,,,,,,,1,,,,,,,,,,,,,,,,,698.628089025995,None,698.628089025995,None,left,1,0.5997788639797363,698.628089025995,None,699.2463074149855,None,,,,,,,,,,,,,,,,,,,,,,,,,,,,,,,,,,1,001,2021_Feb_24_1331,cal_abstract,2020.2.10,59.962203183115214,
,,,,Fix1,stimuli/Old/16.jpg,right,,,,,,,,,,,,0,84,84,84,,,,,,,,,,,,,,,,,,,,,,,,,,,,,,,,,,,,,,,,1,,,,,,,,,,,,,,,,,700.0125577689905,None,700.0125577689905,None,right,1,1.090856448019622,700.0125577689905,None,701.1298479579855,None,,,,,,,,,,,,,,,,,,,,,,,,,,,,,,,,,,1,001,2021_Feb_24_1331,cal_abstract,2020.2.10,59.962203183115214,
,,,,Fix2,stimuli/Healthy/33.jpg,left,,,,,,,,,,,,0,85,85,85,,,,,,,,,,,,,,,,,,,,,,,,,,,,,,,,,,,,,,,,1,,,,,,,,,,,,,,,,,701.9005076909962,None,701.9005076909962,None,left,1,0.878027781000128,701.9005076909962,None,702.7959737569909,None,,,,,,,,,,,,,,,,,,,,,,,,,,,,,,,,,,1,001,2021_Feb_24_1331,cal_abstract,2020.2.10,59.962203183115214,
,,,,Fix1,stimuli/Old/48.jpg,right,,,,,,,,,,,,0,86,86,86,,,,,,,,,,,,,,,,,,,,,,,,,,,,,,,,,,,,,,,,1,,,,,,,,,,,,,,,,,703.5623449039995,None,703.5623449039995,None,right,1,1.003165326983435,703.5623449039995,None,704.595052988996,None,,,,,,,,,,,,,,,,,,,,,,,,,,,,,,,,,,1,001,2021_Feb_24_1331,cal_abstract,2020.2.10,59.962203183115214,
,,,,Fix1,stimuli/Old/39.jpg,right,,,,,,,,,,,,0,87,87,87,,,,,,,,,,,,,,,,,,,,,,,,,,,,,,,,,,,,,,,,1,,,,,,,,,,,,,,,,,705.3623839039938,None,705.3623839039938,None,right,1,0.7219641219999176,705.3623839039938,None,706.1132414639869,None,,,,,,,,,,,,,,,,,,,,,,,,,,,,,,,,,,1,001,2021_Feb_24_1331,cal_abstract,2020.2.10,59.962203183115214,
,,,,Fix1,stimuli/Old/18.jpg,right,,,,,,,,,,,,0,88,88,88,,,,,,,,,,,,,,,,,,,,,,,,,,,,,,,,,,,,,,,,1,,,,,,,,,,,,,,,,,706.8790401669976,None,706.8790401669976,None,right,1,0.6740073350083549,706.8790401669976,None,707.5800980819913,None,,,,,,,,,,,,,,,,,,,,,,,,,,,,,,,,,,1,001,2021_Feb_24_1331,cal_abstract,2020.2.10,59.962203183115214,
,,,,Fix1,stimuli/Old/13.jpg,right,,,,,,,,,,,,0,89,89,89,,,,,,,,,,,,,,,,,,,,,,,,,,,,,,,,,,,,,,,,1,,,,,,,,,,,,,,,,,708.3469544329855,None,708.3469544329855,None,right,1,0.7571360079746228,708.3469544329855,None,709.1296689229785,None,,,,,,,,,,,,,,,,,,,,,,,,,,,,,,,,,,1,001,2021_Feb_24_1331,cal_abstract,2020.2.10,59.962203183115214,
,,,,Fix2,stimuli/Healthy/57.jpg,left,,,,,,,,,,,,0,90,90,90,,,,,,,,,,,,,,,,,,,,,,,,,,,,,,,,,,,,,,,,1,,,,,,,,,,,,,,,,,709.896879952983,None,709.896879952983,None,left,1,0.5523727730032988,709.896879952983,None,710.4802638659894,None,,,,,,,,,,,,,,,,,,,,,,,,,,,,,,,,,,1,001,2021_Feb_24_1331,cal_abstract,2020.2.10,59.962203183115214,
,,,,Fix2,stimuli/Healthy/19.jpg,left,,,,,,,,,,,,0,91,91,91,,,,,,,,,,,,,,,,,,,,,,,,,,,,,,,,,,,,,,,,1,,,,,,,,,,,,,,,,,711.2473279080004,None,711.2473279080004,None,left,1,0.5184649870207068,711.2473279080004,None,711.7971568270004,None,,,,,,,,,,,,,,,,,,,,,,,,,,,,,,,,,,1,001,2021_Feb_24_1331,cal_abstract,2020.2.10,59.962203183115214,
,,,,Fix2,stimuli/Healthy/21.jpg,left,,,,,,,,,,,,0,92,92,92,,,,,,,,,,,,,,,,,,,,,,,,,,,,,,,,,,,,,,,,1,,,,,,,,,,,,,,,,,712.5627087600005,None,712.5627087600005,None,left,1,1.2772332099848427,712.5627087600005,None,713.8667703179817,None,,,,,,,,,,,,,,,,,,,,,,,,,,,,,,,,,,1,001,2021_Feb_24_1331,cal_abstract,2020.2.10,59.962203183115214,
,,,,Fix2,stimuli/Healthy/0.jpg,left,,,,,,,,,,,,0,93,93,93,,,,,,,,,,,,,,,,,,,,,,,,,,,,,,,,,,,,,,,,1,,,,,,,,,,,,,,,,,714.6464486249897,None,714.6464486249897,None,left,1,0.44120334801846184,714.6464486249897,None,715.1129112879862,None,,,,,,,,,,,,,,,,,,,,,,,,,,,,,,,,,,1,001,2021_Feb_24_1331,cal_abstract,2020.2.10,59.962203183115214,
,,,,Fix1,stimuli/Old/35.jpg,right,,,,,,,,,,,,0,94,94,94,,,,,,,,,,,,,,,,,,,,,,,,,,,,,,,,,,,,,,,,0,,,,,,,,,,,,,,,,,715.8812044769875,None,715.8812044769875,None,left,0,0.40833278599893674,715.8812044769875,None,716.3138975150068,None,,,,,,,,,,,,,,,,,,,,,,,,,,,,,,,,,,1,001,2021_Feb_24_1331,cal_abstract,2020.2.10,59.962203183115214,
,,,,Fix2,stimuli/Healthy/56.jpg,left,,,,,,,,,,,,0,95,95,95,,,,,,,,,,,,,,,,,,,,,,,,,,,,,,,,,,,,,,,,1,,,,,,,,,,,,,,,,,717.0813648290059,None,717.0813648290059,None,left,1,0.8015280280087609,717.0813648290059,None,717.9140934039897,None,,,,,,,,,,,,,,,,,,,,,,,,,,,,,,,,,,1,001,2021_Feb_24_1331,cal_abstract,2020.2.10,59.962203183115214,
,,,,Cond,stimuli/Wealth/35.jpg,right,,,,,,,,,,,,0,96,96,96,,,,,,,,,,,,,,,,,,,,,,,,,,,,,,,,,,,,,,,,1,,,,,,,,,,,,,,,,,718.680542535003,None,718.680542535003,None,right,1,0.7138218400068581,718.680542535003,None,719.4140711159853,None,,,,,,,,,,,,,,,,,,,,,,,,,,,,,,,,,,1,001,2021_Feb_24_1331,cal_abstract,2020.2.10,59.962203183115214,
,,,,Fix1,stimuli/Old/23.jpg,right,,,,,,,,,,,,0,97,97,97,,,,,,,,,,,,,,,,,,,,,,,,,,,,,,,,,,,,,,,,1,,,,,,,,,,,,,,,,,720.1811988389818,None,720.1811988389818,None,right,1,0.8151357560127508,720.1811988389818,None,721.0137539249845,None,,,,,,,,,,,,,,,,,,,,,,,,,,,,,,,,,,1,001,2021_Feb_24_1331,cal_abstract,2020.2.10,59.962203183115214,
,,,,Cond,stimuli/Wealth/42.jpg,left,,,,,,,,,,,,0,98,98,98,,,,,,,,,,,,,,,,,,,,,,,,,,,,,,,,,,,,,,,,0,,,,,,,,,,,,,,,,,721.7812924970058,None,721.7812924970058,None,right,0,0.7239348109869752,721.7812924970058,None,722.5309511020023,None,,,,,,,,,,,,,,,,,,,,,,,,,,,,,,,,,,1,001,2021_Feb_24_1331,cal_abstract,2020.2.10,59.962203183115214,
,,,,Fix2,stimuli/Healthy/24.jpg,left,,,,,,,,,,,,0,99,99,99,,,,,,,,,,,,,,,,,,,,,,,,,,,,,,,,,,,,,,,,0,,,,,,,,,,,,,,,,,723.2975597920013,None,723.2975597920013,None,right,0,0.5806309200124815,723.2975597920013,None,723.8980239410012,None,,,,,,,,,,,,,,,,,,,,,,,,,,,,,,,,,,1,001,2021_Feb_24_1331,cal_abstract,2020.2.10,59.962203183115214,
,,,,Cond,stimuli/Wealth/54.jpg,right,,,,,,,,,,,,0,100,100,100,,,,,,,,,,,,,,,,,,,,,,,,,,,,,,,,,,,,,,,,0,,,,,,,,,,,,,,,,,724.6647262479819,None,724.6647262479819,None,left,0,0.8892526849813294,724.6647262479819,None,725.5806187319977,None,,,,,,,,,,,,,,,,,,,,,,,,,,,,,,,,,,1,001,2021_Feb_24_1331,cal_abstract,2020.2.10,59.962203183115214,
,,,,Cond,stimuli/Wealth/4.jpg,left,,,,,,,,,,,,0,101,101,101,,,,,,,,,,,,,,,,,,,,,,,,,,,,,,,,,,,,,,,,0,,,,,,,,,,,,,,,,,726.3479788060067,None,726.3479788060067,None,right,0,1.3711013910069596,726.3479788060067,None,727.746692649991,None,,,,,,,,,,,,,,,,,,,,,,,,,,,,,,,,,,1,001,2021_Feb_24_1331,cal_abstract,2020.2.10,59.962203183115214,
,,,,Fix2,stimuli/Healthy/48.jpg,left,,,,,,,,,,,,0,102,102,102,,,,,,,,,,,,,,,,,,,,,,,,,,,,,,,,,,,,,,,,1,,,,,,,,,,,,,,,,,728.5148158369993,None,728.5148158369993,None,left,1,0.5139895500033163,728.5148158369993,None,729.0481210339931,None,,,,,,,,,,,,,,,,,,,,,,,,,,,,,,,,,,1,001,2021_Feb_24_1331,cal_abstract,2020.2.10,59.962203183115214,
,,,,Fix2,stimuli/Healthy/15.jpg,left,,,,,,,,,,,,0,103,103,103,,,,,,,,,,,,,,,,,,,,,,,,,,,,,,,,,,,,,,,,1,,,,,,,,,,,,,,,,,729.8145844980027,None,729.8145844980027,None,left,1,0.4941673389985226,729.8145844980027,None,730.330378521001,None,,,,,,,,,,,,,,,,,,,,,,,,,,,,,,,,,,1,001,2021_Feb_24_1331,cal_abstract,2020.2.10,59.962203183115214,
,,,,Cond,stimuli/Wealth/38.jpg,right,,,,,,,,,,,,0,104,104,104,,,,,,,,,,,,,,,,,,,,,,,,,,,,,,,,,,,,,,,,1,,,,,,,,,,,,,,,,,731.0983750289888,None,731.0983750289888,None,right,1,0.9164147729752585,731.0983750289888,None,732.0304312579974,None,,,,,,,,,,,,,,,,,,,,,,,,,,,,,,,,,,1,001,2021_Feb_24_1331,cal_abstract,2020.2.10,59.962203183115214,
,,,,Cond,stimuli/Wealth/21.jpg,left,,,,,,,,,,,,0,105,105,105,,,,,,,,,,,,,,,,,,,,,,,,,,,,,,,,,,,,,,,,0,,,,,,,,,,,,,,,,,732.7974856100045,None,732.7974856100045,None,right,0,0.5860023449931759,732.7974856100045,None,733.4141694729915,None,,,,,,,,,,,,,,,,,,,,,,,,,,,,,,,,,,1,001,2021_Feb_24_1331,cal_abstract,2020.2.10,59.962203183115214,
,,,,Fix2,stimuli/Healthy/36.jpg,left,,,,,,,,,,,,0,106,106,106,,,,,,,,,,,,,,,,,,,,,,,,,,,,,,,,,,,,,,,,1,,,,,,,,,,,,,,,,,734.1816601360042,None,734.1816601360042,None,left,1,0.8507890680048149,734.1816601360042,None,735.0655806869909,None,,,,,,,,,,,,,,,,,,,,,,,,,,,,,,,,,,1,001,2021_Feb_24_1331,cal_abstract,2020.2.10,59.962203183115214,
,,,,Fix1,stimuli/Old/12.jpg,right,,,,,,,,,,,,0,107,107,107,,,,,,,,,,,,,,,,,,,,,,,,,,,,,,,,,,,,,,,,0,,,,,,,,,,,,,,,,,735.8470307469834,None,735.8470307469834,None,left,0,0.7734377890010364,735.8470307469834,None,736.652356963983,None,,,,,,,,,,,,,,,,,,,,,,,,,,,,,,,,,,1,001,2021_Feb_24_1331,cal_abstract,2020.2.10,59.962203183115214,
,,,,Fix2,stimuli/Healthy/69.jpg,left,,,,,,,,,,,,0,108,108,108,,,,,,,,,,,,,,,,,,,,,,,,,,,,,,,,,,,,,,,,1,,,,,,,,,,,,,,,,,737.4318478189816,None,737.4318478189816,None,left,1,0.6697316939826123,737.4318478189816,None,738.1321281050041,None,,,,,,,,,,,,,,,,,,,,,,,,,,,,,,,,,,1,001,2021_Feb_24_1331,cal_abstract,2020.2.10,59.962203183115214,
,,,,Fix2,stimuli/Healthy/30.jpg,left,,,,,,,,,,,,0,109,109,109,,,,,,,,,,,,,,,,,,,,,,,,,,,,,,,,,,,,,,,,1,,,,,,,,,,,,,,,,,738.9150990149938,None,738.9150990149938,None,left,1,1.5006264499970712,738.9150990149938,None,740.4316193340055,None,,,,,,,,,,,,,,,,,,,,,,,,,,,,,,,,,,1,001,2021_Feb_24_1331,cal_abstract,2020.2.10,59.962203183115214,
,,,,Cond,stimuli/Wealth/23.jpg,right,,,,,,,,,,,,0,110,110,110,,,,,,,,,,,,,,,,,,,,,,,,,,,,,,,,,,,,,,,,0,,,,,,,,,,,,,,,,,741.1986472799908,None,741.1986472799908,None,left,0,1.7863560739788227,741.1986472799908,None,743.0154093879974,None,,,,,,,,,,,,,,,,,,,,,,,,,,,,,,,,,,1,001,2021_Feb_24_1331,cal_abstract,2020.2.10,59.962203183115214,
,,,,Fix1,stimuli/Old/9.jpg,right,,,,,,,,,,,,0,111,111,111,,,,,,,,,,,,,,,,,,,,,,,,,,,,,,,,,,,,,,,,1,,,,,,,,,,,,,,,,,743.7827567280037,None,743.7827567280037,None,right,1,1.2672926560044289,743.7827567280037,None,745.099765572988,None,,,,,,,,,,,,,,,,,,,,,,,,,,,,,,,,,,1,001,2021_Feb_24_1331,cal_abstract,2020.2.10,59.962203183115214,
,,,,Fix1,stimuli/Old/50.jpg,right,,,,,,,,,,,,0,112,112,112,,,,,,,,,,,,,,,,,,,,,,,,,,,,,,,,,,,,,,,,0,,,,,,,,,,,,,,,,,745.8658987100061,None,745.8658987100061,None,left,0,2.967633983993437,745.8658987100061,None,748.8653439490008,None,,,,,,,,,,,,,,,,,,,,,,,,,,,,,,,,,,1,001,2021_Feb_24_1331,cal_abstract,2020.2.10,59.962203183115214,
,,,,Fix1,stimuli/Old/5.jpg,right,,,,,,,,,,,,0,113,113,113,,,,,,,,,,,,,,,,,,,,,,,,,,,,,,,,,,,,,,,,0,,,,,,,,,,,,,,,,,749.6354919509904,None,749.6354919509904,None,left,0,1.4150414130126592,749.6354919509904,None,751.0826004190021,None,,,,,,,,,,,,,,,,,,,,,,,,,,,,,,,,,,1,001,2021_Feb_24_1331,cal_abstract,2020.2.10,59.962203183115214,
,,,,Fix1,stimuli/Old/57.jpg,right,,,,,,,,,,,,0,114,114,114,,,,,,,,,,,,,,,,,,,,,,,,,,,,,,,,,,,,,,,,0,,,,,,,,,,,,,,,,,751.8503320220043,None,751.8503320220043,None,left,0,0.8644173629872967,751.8503320220043,None,752.732974596991,None,,,,,,,,,,,,,,,,,,,,,,,,,,,,,,,,,,1,001,2021_Feb_24_1331,cal_abstract,2020.2.10,59.962203183115214,
,,,,Cond,stimuli/Wealth/15.jpg,left,,,,,,,,,,,,0,115,115,115,,,,,,,,,,,,,,,,,,,,,,,,,,,,,,,,,,,,,,,,0,,,,,,,,,,,,,,,,,753.5023576609965,None,753.5023576609965,None,right,0,0.9810433720122091,753.5023576609965,None,754.4998743619944,None,,,,,,,,,,,,,,,,,,,,,,,,,,,,,,,,,,1,001,2021_Feb_24_1331,cal_abstract,2020.2.10,59.962203183115214,
,,,,Fix1,stimuli/Old/26.jpg,right,,,,,,,,,,,,0,116,116,116,,,,,,,,,,,,,,,,,,,,,,,,,,,,,,,,,,,,,,,,1,,,,,,,,,,,,,,,,,755.2662407339958,None,755.2662407339958,None,right,1,1.3840934050094802,755.2662407339958,None,756.6660658409819,None,,,,,,,,,,,,,,,,,,,,,,,,,,,,,,,,,,1,001,2021_Feb_24_1331,cal_abstract,2020.2.10,59.962203183115214,
,,,,Cond,stimuli/Wealth/47.jpg,left,,,,,,,,,,,,0,117,117,117,,,,,,,,,,,,,,,,,,,,,,,,,,,,,,,,,,,,,,,,0,,,,,,,,,,,,,,,,,757.433349333005,None,757.433349333005,None,right,0,0.8050028870056849,757.433349333005,None,758.2667729899986,None,,,,,,,,,,,,,,,,,,,,,,,,,,,,,,,,,,1,001,2021_Feb_24_1331,cal_abstract,2020.2.10,59.962203183115214,
,,,,Cond,stimuli/Wealth/30.jpg,right,,,,,,,,,,,,0,118,118,118,,,,,,,,,,,,,,,,,,,,,,,,,,,,,,,,,,,,,,,,1,,,,,,,,,,,,,,,,,759.0371096869931,None,759.0371096869931,None,right,1,0.8451978919911198,759.0371096869931,None,759.9001196169993,None,,,,,,,,,,,,,,,,,,,,,,,,,,,,,,,,,,1,001,2021_Feb_24_1331,cal_abstract,2020.2.10,59.962203183115214,
,,,,Cond,stimuli/Wealth/36.jpg,left,,,,,,,,,,,,0,119,119,119,,,,,,,,,,,,,,,,,,,,,,,,,,,,,,,,,,,,,,,,0,,,,,,,,,,,,,,,,,760.6667335259845,None,760.6667335259845,None,right,0,1.051064626983134,760.6667335259845,None,761.7497740880062,None,,,,,,,,,,,,,,,,,,,,,,,,,,,,,,,,,,1,001,2021_Feb_24_1331,cal_abstract,2020.2.10,59.962203183115214,
,,,,Fix1,stimuli/Old/11.jpg,right,,,,,,,,,,,,0,120,120,120,,,,,,,,,,,,,,,,,,,,,,,,,,,,,,,,,,,,,,,,1,,,,,,,,,,,,,,,,,762.5174296079786,None,762.5174296079786,None,right,1,0.7002077670185827,762.5174296079786,None,763.2498884439992,None,,,,,,,,,,,,,,,,,,,,,,,,,,,,,,,,,,1,001,2021_Feb_24_1331,cal_abstract,2020.2.10,59.962203183115214,
,,,,Cond,stimuli/Wealth/34.jpg,left,,,,,,,,,,,,0,121,121,121,,,,,,,,,,,,,,,,,,,,,,,,,,,,,,,,,,,,,,,,1,,,,,,,,,,,,,,,,,764.0163209319871,None,764.0163209319871,None,left,1,0.9292398210091051,764.0163209319871,None,764.9664885829843,None,,,,,,,,,,,,,,,,,,,,,,,,,,,,,,,,,,1,001,2021_Feb_24_1331,cal_abstract,2020.2.10,59.962203183115214,
,,,,Fix2,stimuli/Healthy/46.jpg,left,,,,,,,,,,,,0,122,122,122,,,,,,,,,,,,,,,,,,,,,,,,,,,,,,,,,,,,,,,,1,,,,,,,,,,,,,,,,,765.7341053029813,None,765.7341053029813,None,left,1,0.6553830170014407,765.7341053029813,None,766.415914843994,None,,,,,,,,,,,,,,,,,,,,,,,,,,,,,,,,,,1,001,2021_Feb_24_1331,cal_abstract,2020.2.10,59.962203183115214,
,,,,Fix1,stimuli/Old/32.jpg,right,,,,,,,,,,,,0,123,123,123,,,,,,,,,,,,,,,,,,,,,,,,,,,,,,,,,,,,,,,,1,,,,,,,,,,,,,,,,,767.1836165300047,None,767.1836165300047,None,right,1,0.8168976780143566,767.1836165300047,None,768.0335425910016,None,,,,,,,,,,,,,,,,,,,,,,,,,,,,,,,,,,1,001,2021_Feb_24_1331,cal_abstract,2020.2.10,59.962203183115214,
,,,,Cond,stimuli/Wealth/48.jpg,left,,,,,,,,,,,,0,124,124,124,,,,,,,,,,,,,,,,,,,,,,,,,,,,,,,,,,,,,,,,1,,,,,,,,,,,,,,,,,768.7997833449917,None,768.7997833449917,None,left,1,1.1905770679877605,768.7997833449917,None,770.0163188320003,None,,,,,,,,,,,,,,,,,,,,,,,,,,,,,,,,,,1,001,2021_Feb_24_1331,cal_abstract,2020.2.10,59.962203183115214,
,,,,Fix1,stimuli/Old/27.jpg,right,,,,,,,,,,,,0,125,125,125,,,,,,,,,,,,,,,,,,,,,,,,,,,,,,,,,,,,,,,,1,,,,,,,,,,,,,,,,,770.7839165159967,None,770.7839165159967,None,right,1,2.165416047995677,770.7839165159967,None,772.9675634379964,None,,,,,,,,,,,,,,,,,,,,,,,,,,,,,,,,,,1,001,2021_Feb_24_1331,cal_abstract,2020.2.10,59.962203183115214,
,,,,Cond,stimuli/Wealth/29.jpg,left,,,,,,,,,,,,0,126,126,126,,,,,,,,,,,,,,,,,,,,,,,,,,,,,,,,,,,,,,,,0,,,,,,,,,,,,,,,,,773.7334101320012,None,773.7334101320012,None,right,0,0.8346802679880057,773.7334101320012,None,774.6009008509864,None,,,,,,,,,,,,,,,,,,,,,,,,,,,,,,,,,,1,001,2021_Feb_24_1331,cal_abstract,2020.2.10,59.962203183115214,
,,,,Fix1,stimuli/Old/42.jpg,right,,,,,,,,,,,,0,127,127,127,,,,,,,,,,,,,,,,,,,,,,,,,,,,,,,,,,,,,,,,1,,,,,,,,,,,,,,,,,775.3842275979987,None,775.3842275979987,None,right,1,0.7260770119901281,775.3842275979987,None,776.1338452349883,None,,,,,,,,,,,,,,,,,,,,,,,,,,,,,,,,,,1,001,2021_Feb_24_1331,cal_abstract,2020.2.10,59.962203183115214,
,,,,Fix1,stimuli/Old/4.jpg,right,,,,,,,,,,,,0,128,128,128,,,,,,,,,,,,,,,,,,,,,,,,,,,,,,,,,,,,,,,,1,,,,,,,,,,,,,,,,,776.9012737029989,None,776.9012737029989,None,right,1,0.6466406309918966,776.9012737029989,None,777.5670176119893,None,,,,,,,,,,,,,,,,,,,,,,,,,,,,,,,,,,1,001,2021_Feb_24_1331,cal_abstract,2020.2.10,59.962203183115214,
,,,,Fix2,stimuli/Healthy/31.jpg,left,,,,,,,,,,,,0,129,129,129,,,,,,,,,,,,,,,,,,,,,,,,,,,,,,,,,,,,,,,,1,,,,,,,,,,,,,,,,,778.3340142779925,None,778.3340142779925,None,left,1,0.5797219480155036,778.3340142779925,None,778.9344619909825,None,,,,,,,,,,,,,,,,,,,,,,,,,,,,,,,,,,1,001,2021_Feb_24_1331,cal_abstract,2020.2.10,59.962203183115214,
,,,,Cond,stimuli/Wealth/18.jpg,right,,,,,,,,,,,,0,130,130,130,,,,,,,,,,,,,,,,,,,,,,,,,,,,,,,,,,,,,,,,0,,,,,,,,,,,,,,,,,779.7018094359955,None,779.7018094359955,None,left,0,0.5312167720112484,779.7018094359955,None,780.2520180169959,None,,,,,,,,,,,,,,,,,,,,,,,,,,,,,,,,,,1,001,2021_Feb_24_1331,cal_abstract,2020.2.10,59.962203183115214,
