Text,Block1Type,Block1Stim,Block1Corr,Block2Type,Block2Stim,Block2Corr,Block3Type,Block3Stim,Block3Corr,Instruction_loop.thisRepN,Instruction_loop.thisTrialN,Instruction_loop.thisN,Instruction_loop.thisIndex,Block1_loop.thisRepN,Block1_loop.thisTrialN,Block1_loop.thisN,Block1_loop.thisIndex,Block2_loop.thisRepN,Block2_loop.thisTrialN,Block2_loop.thisN,Block2_loop.thisIndex,Block3_loop.thisRepN,Block3_loop.thisTrialN,Block3_loop.thisN,Block3_loop.thisIndex,welcome_text1.started,welcome_text1.stopped,welcome_text2.started,welcome_text2.stopped,welcome_text3.started,welcome_text3.stopped,welcome_resp.keys,welcome_resp.rt,welcome_resp.started,welcome_resp.stopped,instruct_text1.started,instruct_text1.stopped,instruct_text2.started,instruct_text2.stopped,instruct_resp1.keys,instruct_resp1.rt,instruct_resp1.started,instruct_resp1.stopped,start_text1.started,start_text1.stopped,start_text2.started,start_text2.stopped,start_resp1.keys,start_resp1.rt,start_resp1.started,start_resp1.stopped,image1.started,image1.stopped,text1.started,text1.stopped,key_resp1.keys,key_resp1.corr,key_resp1.rt,key_resp1.started,key_resp1.stopped,trialCorrect,feedback_text1.started,feedback_text1.stopped,break_text1.started,break_text1.stopped,break_resp1.keys,break_resp1.rt,break_resp1.started,break_resp1.stopped,start_text3.started,start_text3.stopped,start_text4.started,start_text4.stopped,start_resp2.keys,start_resp2.rt,start_resp2.started,start_resp2.stopped,image2.started,image2.stopped,text2.started,text2.stopped,key_resp2.keys,key_resp2.corr,key_resp2.rt,key_resp2.started,key_resp2.stopped,feedback_text2.started,feedback_text2.stopped,break_text2.started,break_text2.stopped,break_resp2.keys,break_resp2.rt,break_resp2.started,break_resp2.stopped,start_text5.started,start_text5.stopped,start_text6.started,start_text6.stopped,start_resp3.keys,start_resp3.rt,start_resp3.started,start_resp3.stopped,image3.started,image3.stopped,text3.started,text3.stopped,key_resp3.keys,key_resp3.corr,key_resp3.rt,key_resp3.started,key_resp3.stopped,feedback_text3.started,feedback_text3.stopped,end_text1.started,end_text1.stopped,end_text2.started,end_text2.stopped,end_resp.keys,end_resp.rt,end_resp.started,end_resp.stopped,participant,session,date,expName,psychopyVersion,frameRate,
,,,,,,,,,,,,,,,,,,,,,,,,,,20.927766099979635,None,20.927766099979635,None,20.927766099979635,None,return,33.96548379998421,20.927766099979635,None,,,,,,,,,,,,,,,,,,,,,,,,,,,,,,,,,,,,,,,,,,,,,,,,,,,,,,,,,,,,,,,,,,,,,,,,,,,,,,,,,,,,,,,1.L,001,2021_Feb_23_2059,cal_abstract,2020.2.10,59.92089242838738,
"You will be presented with a series of images. It is your job to learn, through trial and error, whether the “Left” or “Right” arrow key should be pressed for each image.",,,,,,,,,,0,0,0,0,,,,,,,,,,,,,,,,,,,,,,,55.15198550000787,None,55.15198550000787,None,return,25.58199890004471,55.15198550000787,None,,,,,,,,,,,,,,,,,,,,,,,,,,,,,,,,,,,,,,,,,,,,,,,,,,,,,,,,,,,,,,,,,,,,,,,,,,,,,,,1.L,001,2021_Feb_23_2059,cal_abstract,2020.2.10,59.92089242838738,
"For some images you should always press “Left”, and for others you should always press “Right” arrow key.",,,,,,,,,,0,1,1,1,,,,,,,,,,,,,,,,,,,,,,,80.7839410000015,None,80.7839410000015,None,return,5.230229999986477,80.7839410000015,None,,,,,,,,,,,,,,,,,,,,,,,,,,,,,,,,,,,,,,,,,,,,,,,,,,,,,,,,,,,,,,,,,,,,,,,,,,,,,,,1.L,001,2021_Feb_23_2059,cal_abstract,2020.2.10,59.92089242838738,
"Some images are special: the correct response is the opposite of the preceding correct response. That is, if the previous correct answer was “Left” then the correct response would now be “Right”.",,,,,,,,,,0,2,2,2,,,,,,,,,,,,,,,,,,,,,,,86.05614259996219,None,86.05614259996219,None,return,49.07481520000147,86.05614259996219,None,,,,,,,,,,,,,,,,,,,,,,,,,,,,,,,,,,,,,,,,,,,,,,,,,,,,,,,,,,,,,,,,,,,,,,,,,,,,,,,1.L,001,2021_Feb_23_2059,cal_abstract,2020.2.10,59.92089242838738,
"After each response, you will be told whether you got the item correct or incorrect.",,,,,,,,,,0,3,3,3,,,,,,,,,,,,,,,,,,,,,,,135.1617993999971,None,135.1617993999971,None,return,4.508290999976452,135.1617993999971,None,,,,,,,,,,,,,,,,,,,,,,,,,,,,,,,,,,,,,,,,,,,,,,,,,,,,,,,,,,,,,,,,,,,,,,,,,,,,,,,1.L,001,2021_Feb_23_2059,cal_abstract,2020.2.10,59.92089242838738,
"You can take as long as you like on each image, but the task will not continue until you press the “Left” or “Right” arrow key.",,,,,,,,,,0,4,4,4,,,,,,,,,,,,,,,,,,,,,,,139.71374370000558,None,139.71374370000558,None,return,12.2162788999849,139.71374370000558,None,,,,,,,,,,,,,,,,,,,,,,,,,,,,,,,,,,,,,,,,,,,,,,,,,,,,,,,,,,,,,,,,,,,,,,,,,,,,,,,1.L,001,2021_Feb_23_2059,cal_abstract,2020.2.10,59.92089242838738,
"The experiment will have three blocks, each block will take approximately 10 minutes to complete.",,,,,,,,,,0,5,5,5,,,,,,,,,,,,,,,,,,,,,,,151.97405919997254,None,151.97405919997254,None,return,4.965495500015095,151.97405919997254,None,,,,,,,,,,,,,,,,,,,,,,,,,,,,,,,,,,,,,,,,,,,,,,,,,,,,,,,,,,,,,,,,,,,,,,,,,,,,,,,1.L,001,2021_Feb_23_2059,cal_abstract,2020.2.10,59.92089242838738,
,,,,,,,,,,,,,,,,,,,,,,,,,,,,,,,,,,,,,,,,,,,,156.9600264999899,None,156.9600264999899,None,s,4.990191299992148,156.9600264999899,None,,,,,,,,,,,,,,,,,,,,,,,,,,,,,,,,,,,,,,,,,,,,,,,,,,,,,,,,,,,,,,,,,,,,,,,1.L,001,2021_Feb_23_2059,cal_abstract,2020.2.10,59.92089242838738,
,Fix2,stimuli/Dangerous/15.jpg,right,,,,,,,,,,,0,0,0,0,,,,,,,,,,,,,,,,,,,,,,,,,,,,,,,,,,,162.13603609998245,None,162.13603609998245,None,right,1,4.405175500025507,162.13603609998245,None,1,166.61212619999424,None,,,,,,,,,,,,,,,,,,,,,,,,,,,,,,,,,,,,,,,,,,,,,,,,,,,,,,,,,,,1.L,001,2021_Feb_23_2059,cal_abstract,2020.2.10,59.92089242838738,
,Fix1,stimuli/School/26.jpg,left,,,,,,,,,,,0,1,1,1,,,,,,,,,,,,,,,,,,,,,,,,,,,,,,,,,,,167.38336649996927,None,167.38336649996927,None,right,0,6.657999299990479,167.38336649996927,None,0,174.09482200001366,None,,,,,,,,,,,,,,,,,,,,,,,,,,,,,,,,,,,,,,,,,,,,,,,,,,,,,,,,,,,1.L,001,2021_Feb_23_2059,cal_abstract,2020.2.10,59.92089242838738,
,Cond,stimuli/Small/10.jpg,right,,,,,,,,,,,0,2,2,2,,,,,,,,,,,,,,,,,,,,,,,,,,,,,,,,,,,174.8726675999933,None,174.8726675999933,None,left,0,6.8379957000142895,174.8726675999933,None,0,181.7271712999791,None,,,,,,,,,,,,,,,,,,,,,,,,,,,,,,,,,,,,,,,,,,,,,,,,,,,,,,,,,,,1.L,001,2021_Feb_23_2059,cal_abstract,2020.2.10,59.92089242838738,
,Fix1,stimuli/School/25.jpg,left,,,,,,,,,,,0,3,3,3,,,,,,,,,,,,,,,,,,,,,,,,,,,,,,,,,,,182.51127169997199,None,182.51127169997199,None,left,1,8.61043460003566,182.51127169997199,None,1,191.1674165999866,None,,,,,,,,,,,,,,,,,,,,,,,,,,,,,,,,,,,,,,,,,,,,,,,,,,,,,,,,,,,1.L,001,2021_Feb_23_2059,cal_abstract,2020.2.10,59.92089242838738,
,Fix2,stimuli/Dangerous/30.jpg,right,,,,,,,,,,,0,4,4,4,,,,,,,,,,,,,,,,,,,,,,,,,,,,,,,,,,,191.97551419999218,None,191.97551419999218,None,left,0,11.04634989995975,191.97551419999218,None,0,203.06196199997794,None,,,,,,,,,,,,,,,,,,,,,,,,,,,,,,,,,,,,,,,,,,,,,,,,,,,,,,,,,,,1.L,001,2021_Feb_23_2059,cal_abstract,2020.2.10,59.92089242838738,
,Fix2,stimuli/Dangerous/42.jpg,right,,,,,,,,,,,0,5,5,5,,,,,,,,,,,,,,,,,,,,,,,,,,,,,,,,,,,203.8666195999831,None,203.8666195999831,None,left,0,4.864778799994383,203.8666195999831,None,0,208.7496048999601,None,,,,,,,,,,,,,,,,,,,,,,,,,,,,,,,,,,,,,,,,,,,,,,,,,,,,,,,,,,,1.L,001,2021_Feb_23_2059,cal_abstract,2020.2.10,59.92089242838738,
,Cond,stimuli/Small/4.jpg,left,,,,,,,,,,,0,6,6,6,,,,,,,,,,,,,,,,,,,,,,,,,,,,,,,,,,,209.57718540000496,None,209.57718540000496,None,right,0,3.555366500047967,209.57718540000496,None,0,213.1512619999703,None,,,,,,,,,,,,,,,,,,,,,,,,,,,,,,,,,,,,,,,,,,,,,,,,,,,,,,,,,,,1.L,001,2021_Feb_23_2059,cal_abstract,2020.2.10,59.92089242838738,
,Fix2,stimuli/Dangerous/44.jpg,right,,,,,,,,,,,0,7,7,7,,,,,,,,,,,,,,,,,,,,,,,,,,,,,,,,,,,213.94185110001126,None,213.94185110001126,None,right,1,5.590572500019334,213.94185110001126,None,1,219.56692249997286,None,,,,,,,,,,,,,,,,,,,,,,,,,,,,,,,,,,,,,,,,,,,,,,,,,,,,,,,,,,,1.L,001,2021_Feb_23_2059,cal_abstract,2020.2.10,59.92089242838738,
,Cond,stimuli/Small/39.jpg,left,,,,,,,,,,,0,8,8,8,,,,,,,,,,,,,,,,,,,,,,,,,,,,,,,,,,,220.3811008000048,None,220.3811008000048,None,right,0,6.441654899972491,220.3811008000048,None,0,226.85789230000228,None,,,,,,,,,,,,,,,,,,,,,,,,,,,,,,,,,,,,,,,,,,,,,,,,,,,,,,,,,,,1.L,001,2021_Feb_23_2059,cal_abstract,2020.2.10,59.92089242838738,
,Fix2,stimuli/Dangerous/34.jpg,right,,,,,,,,,,,0,9,9,9,,,,,,,,,,,,,,,,,,,,,,,,,,,,,,,,,,,227.6460698999581,None,227.6460698999581,None,right,1,1.9764209000277333,227.6460698999581,None,1,229.66051369998604,None,,,,,,,,,,,,,,,,,,,,,,,,,,,,,,,,,,,,,,,,,,,,,,,,,,,,,,,,,,,1.L,001,2021_Feb_23_2059,cal_abstract,2020.2.10,59.92089242838738,
,Cond,stimuli/Small/13.jpg,left,,,,,,,,,,,0,10,10,10,,,,,,,,,,,,,,,,,,,,,,,,,,,,,,,,,,,230.45262579998234,None,230.45262579998234,None,left,1,5.190139100013766,230.45262579998234,None,1,235.66847410000628,None,,,,,,,,,,,,,,,,,,,,,,,,,,,,,,,,,,,,,,,,,,,,,,,,,,,,,,,,,,,1.L,001,2021_Feb_23_2059,cal_abstract,2020.2.10,59.92089242838738,
,Fix2,stimuli/Dangerous/6.jpg,right,,,,,,,,,,,0,11,11,11,,,,,,,,,,,,,,,,,,,,,,,,,,,,,,,,,,,236.4804795999662,None,236.4804795999662,None,right,1,2.8821198999648914,236.4804795999662,None,1,239.3879158999771,None,,,,,,,,,,,,,,,,,,,,,,,,,,,,,,,,,,,,,,,,,,,,,,,,,,,,,,,,,,,1.L,001,2021_Feb_23_2059,cal_abstract,2020.2.10,59.92089242838738,
,Fix2,stimuli/Dangerous/24.jpg,right,,,,,,,,,,,0,12,12,12,,,,,,,,,,,,,,,,,,,,,,,,,,,,,,,,,,,240.18689700000687,None,240.18689700000687,None,right,1,2.5357004000106826,240.18689700000687,None,1,242.75450939999428,None,,,,,,,,,,,,,,,,,,,,,,,,,,,,,,,,,,,,,,,,,,,,,,,,,,,,,,,,,,,1.L,001,2021_Feb_23_2059,cal_abstract,2020.2.10,59.92089242838738,
,Cond,stimuli/Small/20.jpg,left,,,,,,,,,,,0,13,13,13,,,,,,,,,,,,,,,,,,,,,,,,,,,,,,,,,,,243.5350111000007,None,243.5350111000007,None,left,1,3.037298000010196,243.5350111000007,None,1,246.59181690000696,None,,,,,,,,,,,,,,,,,,,,,,,,,,,,,,,,,,,,,,,,,,,,,,,,,,,,,,,,,,,1.L,001,2021_Feb_23_2059,cal_abstract,2020.2.10,59.92089242838738,
,Fix2,stimuli/Dangerous/33.jpg,right,,,,,,,,,,,0,14,14,14,,,,,,,,,,,,,,,,,,,,,,,,,,,,,,,,,,,247.39325049996842,None,247.39325049996842,None,right,1,1.7702189999981783,247.39325049996842,None,1,249.19134690001374,None,,,,,,,,,,,,,,,,,,,,,,,,,,,,,,,,,,,,,,,,,,,,,,,,,,,,,,,,,,,1.L,001,2021_Feb_23_2059,cal_abstract,2020.2.10,59.92089242838738,
,Cond,stimuli/Small/2.jpg,left,,,,,,,,,,,0,15,15,15,,,,,,,,,,,,,,,,,,,,,,,,,,,,,,,,,,,249.98360179999145,None,249.98360179999145,None,left,1,2.449726600025315,249.98360179999145,None,1,252.46257019997574,None,,,,,,,,,,,,,,,,,,,,,,,,,,,,,,,,,,,,,,,,,,,,,,,,,,,,,,,,,,,1.L,001,2021_Feb_23_2059,cal_abstract,2020.2.10,59.92089242838738,
,Fix2,stimuli/Dangerous/41.jpg,right,,,,,,,,,,,0,16,16,16,,,,,,,,,,,,,,,,,,,,,,,,,,,,,,,,,,,253.262161199993,None,253.262161199993,None,right,1,1.2408118000021204,253.262161199993,None,1,254.52777340001194,None,,,,,,,,,,,,,,,,,,,,,,,,,,,,,,,,,,,,,,,,,,,,,,,,,,,,,,,,,,,1.L,001,2021_Feb_23_2059,cal_abstract,2020.2.10,59.92089242838738,
,Fix1,stimuli/School/56.jpg,left,,,,,,,,,,,0,17,17,17,,,,,,,,,,,,,,,,,,,,,,,,,,,,,,,,,,,255.31647580000572,None,255.31647580000572,None,left,1,1.6869402999873273,255.31647580000572,None,1,257.03069749998394,None,,,,,,,,,,,,,,,,,,,,,,,,,,,,,,,,,,,,,,,,,,,,,,,,,,,,,,,,,,,1.L,001,2021_Feb_23_2059,cal_abstract,2020.2.10,59.92089242838738,
,Cond,stimuli/Small/57.jpg,right,,,,,,,,,,,0,18,18,18,,,,,,,,,,,,,,,,,,,,,,,,,,,,,,,,,,,257.8248419999727,None,257.8248419999727,None,left,0,1.3683572000009008,257.8248419999727,None,0,259.2353718999657,None,,,,,,,,,,,,,,,,,,,,,,,,,,,,,,,,,,,,,,,,,,,,,,,,,,,,,,,,,,,1.L,001,2021_Feb_23_2059,cal_abstract,2020.2.10,59.92089242838738,
,Fix2,stimuli/Dangerous/58.jpg,right,,,,,,,,,,,0,19,19,19,,,,,,,,,,,,,,,,,,,,,,,,,,,,,,,,,,,260.0159471000079,None,260.0159471000079,None,right,1,3.3077932000160217,260.0159471000079,None,1,263.36949599999934,None,,,,,,,,,,,,,,,,,,,,,,,,,,,,,,,,,,,,,,,,,,,,,,,,,,,,,,,,,,,1.L,001,2021_Feb_23_2059,cal_abstract,2020.2.10,59.92089242838738,
,Cond,stimuli/Small/58.jpg,left,,,,,,,,,,,0,20,20,20,,,,,,,,,,,,,,,,,,,,,,,,,,,,,,,,,,,264.15122820000397,None,264.15122820000397,None,left,1,2.8723623999976553,264.15122820000397,None,1,267.05594250001013,None,,,,,,,,,,,,,,,,,,,,,,,,,,,,,,,,,,,,,,,,,,,,,,,,,,,,,,,,,,,1.L,001,2021_Feb_23_2059,cal_abstract,2020.2.10,59.92089242838738,
,Fix2,stimuli/Dangerous/20.jpg,right,,,,,,,,,,,0,21,21,21,,,,,,,,,,,,,,,,,,,,,,,,,,,,,,,,,,,267.8791035999893,None,267.8791035999893,None,right,1,2.2546566000091843,267.8791035999893,None,1,270.1570369999972,None,,,,,,,,,,,,,,,,,,,,,,,,,,,,,,,,,,,,,,,,,,,,,,,,,,,,,,,,,,,1.L,001,2021_Feb_23_2059,cal_abstract,2020.2.10,59.92089242838738,
,Cond,stimuli/Small/29.jpg,left,,,,,,,,,,,0,22,22,22,,,,,,,,,,,,,,,,,,,,,,,,,,,,,,,,,,,270.9556726999581,None,270.9556726999581,None,left,1,2.0481152000138536,270.9556726999581,None,1,273.02713090000907,None,,,,,,,,,,,,,,,,,,,,,,,,,,,,,,,,,,,,,,,,,,,,,,,,,,,,,,,,,,,1.L,001,2021_Feb_23_2059,cal_abstract,2020.2.10,59.92089242838738,
,Fix2,stimuli/Dangerous/46.jpg,right,,,,,,,,,,,0,23,23,23,,,,,,,,,,,,,,,,,,,,,,,,,,,,,,,,,,,273.81943319999846,None,273.81943319999846,None,right,1,2.014324299991131,273.81943319999846,None,1,275.8628987999982,None,,,,,,,,,,,,,,,,,,,,,,,,,,,,,,,,,,,,,,,,,,,,,,,,,,,,,,,,,,,1.L,001,2021_Feb_23_2059,cal_abstract,2020.2.10,59.92089242838738,
,Fix1,stimuli/School/10.jpg,left,,,,,,,,,,,0,24,24,24,,,,,,,,,,,,,,,,,,,,,,,,,,,,,,,,,,,277.30634629999986,None,277.30634629999986,None,left,1,1.4662157999700867,277.30634629999986,None,1,278.79389949998586,None,,,,,,,,,,,,,,,,,,,,,,,,,,,,,,,,,,,,,,,,,,,,,,,,,,,,,,,,,,,1.L,001,2021_Feb_23_2059,cal_abstract,2020.2.10,59.92089242838738,
,Fix1,stimuli/School/50.jpg,left,,,,,,,,,,,0,25,25,25,,,,,,,,,,,,,,,,,,,,,,,,,,,,,,,,,,,279.56993100000545,None,279.56993100000545,None,left,1,2.0036625000066124,279.56993100000545,None,1,281.59888140001567,None,,,,,,,,,,,,,,,,,,,,,,,,,,,,,,,,,,,,,,,,,,,,,,,,,,,,,,,,,,,1.L,001,2021_Feb_23_2059,cal_abstract,2020.2.10,59.92089242838738,
,Cond,stimuli/Small/19.jpg,right,,,,,,,,,,,0,26,26,26,,,,,,,,,,,,,,,,,,,,,,,,,,,,,,,,,,,282.41733809997095,None,282.41733809997095,None,left,0,2.065249799983576,282.41733809997095,None,0,284.50047199998517,None,,,,,,,,,,,,,,,,,,,,,,,,,,,,,,,,,,,,,,,,,,,,,,,,,,,,,,,,,,,1.L,001,2021_Feb_23_2059,cal_abstract,2020.2.10,59.92089242838738,
,Fix1,stimuli/School/28.jpg,left,,,,,,,,,,,0,27,27,27,,,,,,,,,,,,,,,,,,,,,,,,,,,,,,,,,,,285.3011887999601,None,285.3011887999601,None,left,1,1.752376499993261,285.3011887999601,None,1,287.099852299958,None,,,,,,,,,,,,,,,,,,,,,,,,,,,,,,,,,,,,,,,,,,,,,,,,,,,,,,,,,,,1.L,001,2021_Feb_23_2059,cal_abstract,2020.2.10,59.92089242838738,
,Fix1,stimuli/School/35.jpg,left,,,,,,,,,,,0,28,28,28,,,,,,,,,,,,,,,,,,,,,,,,,,,,,,,,,,,287.9151789000025,None,287.9151789000025,None,left,1,3.6982672999729402,287.9151789000025,None,1,291.6401762999594,None,,,,,,,,,,,,,,,,,,,,,,,,,,,,,,,,,,,,,,,,,,,,,,,,,,,,,,,,,,,1.L,001,2021_Feb_23_2059,cal_abstract,2020.2.10,59.92089242838738,
,Fix1,stimuli/School/39.jpg,left,,,,,,,,,,,0,29,29,29,,,,,,,,,,,,,,,,,,,,,,,,,,,,,,,,,,,292.4150945000001,None,292.4150945000001,None,right,0,1.9697702000266872,292.4150945000001,None,0,294.44243019999703,None,,,,,,,,,,,,,,,,,,,,,,,,,,,,,,,,,,,,,,,,,,,,,,,,,,,,,,,,,,,1.L,001,2021_Feb_23_2059,cal_abstract,2020.2.10,59.92089242838738,
,Cond,stimuli/Small/42.jpg,right,,,,,,,,,,,0,30,30,30,,,,,,,,,,,,,,,,,,,,,,,,,,,,,,,,,,,295.2077511000098,None,295.2077511000098,None,right,1,1.3470061999978498,295.2077511000098,None,1,296.59192169999005,None,,,,,,,,,,,,,,,,,,,,,,,,,,,,,,,,,,,,,,,,,,,,,,,,,,,,,,,,,,,1.L,001,2021_Feb_23_2059,cal_abstract,2020.2.10,59.92089242838738,
,Fix2,stimuli/Dangerous/31.jpg,right,,,,,,,,,,,0,31,31,31,,,,,,,,,,,,,,,,,,,,,,,,,,,,,,,,,,,297.3860278999782,None,297.3860278999782,None,right,1,2.378384600044228,297.3860278999782,None,1,299.7932775999652,None,,,,,,,,,,,,,,,,,,,,,,,,,,,,,,,,,,,,,,,,,,,,,,,,,,,,,,,,,,,1.L,001,2021_Feb_23_2059,cal_abstract,2020.2.10,59.92089242838738,
,Cond,stimuli/Small/25.jpg,left,,,,,,,,,,,0,32,32,32,,,,,,,,,,,,,,,,,,,,,,,,,,,,,,,,,,,300.5961708999821,None,300.5961708999821,None,left,1,1.42852130002575,300.5961708999821,None,1,302.0472211999586,None,,,,,,,,,,,,,,,,,,,,,,,,,,,,,,,,,,,,,,,,,,,,,,,,,,,,,,,,,,,1.L,001,2021_Feb_23_2059,cal_abstract,2020.2.10,59.92089242838738,
,Cond,stimuli/Small/9.jpg,right,,,,,,,,,,,0,33,33,33,,,,,,,,,,,,,,,,,,,,,,,,,,,,,,,,,,,302.84624400001485,None,302.84624400001485,None,left,0,2.718317000020761,302.84624400001485,None,0,305.5983925999608,None,,,,,,,,,,,,,,,,,,,,,,,,,,,,,,,,,,,,,,,,,,,,,,,,,,,,,,,,,,,1.L,001,2021_Feb_23_2059,cal_abstract,2020.2.10,59.92089242838738,
,Fix1,stimuli/School/9.jpg,left,,,,,,,,,,,0,34,34,34,,,,,,,,,,,,,,,,,,,,,,,,,,,,,,,,,,,306.38871929998277,None,306.38871929998277,None,left,1,1.4361592999775894,306.38871929998277,None,1,307.86438230000203,None,,,,,,,,,,,,,,,,,,,,,,,,,,,,,,,,,,,,,,,,,,,,,,,,,,,,,,,,,,,1.L,001,2021_Feb_23_2059,cal_abstract,2020.2.10,59.92089242838738,
,Fix1,stimuli/School/23.jpg,left,,,,,,,,,,,0,35,35,35,,,,,,,,,,,,,,,,,,,,,,,,,,,,,,,,,,,308.645725600014,None,308.645725600014,None,left,1,1.8389408999937586,308.645725600014,None,1,310.51595209998777,None,,,,,,,,,,,,,,,,,,,,,,,,,,,,,,,,,,,,,,,,,,,,,,,,,,,,,,,,,,,1.L,001,2021_Feb_23_2059,cal_abstract,2020.2.10,59.92089242838738,
,Fix1,stimuli/School/54.jpg,left,,,,,,,,,,,0,36,36,36,,,,,,,,,,,,,,,,,,,,,,,,,,,,,,,,,,,311.30334869999206,None,311.30334869999206,None,left,1,2.1414075000211596,311.30334869999206,None,1,313.4726000999799,None,,,,,,,,,,,,,,,,,,,,,,,,,,,,,,,,,,,,,,,,,,,,,,,,,,,,,,,,,,,1.L,001,2021_Feb_23_2059,cal_abstract,2020.2.10,59.92089242838738,
,Cond,stimuli/Small/43.jpg,right,,,,,,,,,,,0,37,37,37,,,,,,,,,,,,,,,,,,,,,,,,,,,,,,,,,,,314.25730419997126,None,314.25730419997126,None,left,0,1.907421100011561,314.25730419997126,None,0,316.20707870001206,None,,,,,,,,,,,,,,,,,,,,,,,,,,,,,,,,,,,,,,,,,,,,,,,,,,,,,,,,,,,1.L,001,2021_Feb_23_2059,cal_abstract,2020.2.10,59.92089242838738,
,Fix2,stimuli/Dangerous/22.jpg,right,,,,,,,,,,,0,38,38,38,,,,,,,,,,,,,,,,,,,,,,,,,,,,,,,,,,,316.98157860001083,None,316.98157860001083,None,right,1,1.8629352999851108,316.98157860001083,None,1,318.8863543999614,None,,,,,,,,,,,,,,,,,,,,,,,,,,,,,,,,,,,,,,,,,,,,,,,,,,,,,,,,,,,1.L,001,2021_Feb_23_2059,cal_abstract,2020.2.10,59.92089242838738,
,Fix2,stimuli/Dangerous/43.jpg,right,,,,,,,,,,,0,39,39,39,,,,,,,,,,,,,,,,,,,,,,,,,,,,,,,,,,,319.73127449996537,None,319.73127449996537,None,right,1,1.3032396000344306,319.73127449996537,None,1,321.0610866000061,None,,,,,,,,,,,,,,,,,,,,,,,,,,,,,,,,,,,,,,,,,,,,,,,,,,,,,,,,,,,1.L,001,2021_Feb_23_2059,cal_abstract,2020.2.10,59.92089242838738,
,Cond,stimuli/Small/36.jpg,left,,,,,,,,,,,0,40,40,40,,,,,,,,,,,,,,,,,,,,,,,,,,,,,,,,,,,321.8623249999946,None,321.8623249999946,None,left,1,1.3522827999549918,321.8623249999946,None,1,323.2436979999766,None,,,,,,,,,,,,,,,,,,,,,,,,,,,,,,,,,,,,,,,,,,,,,,,,,,,,,,,,,,,1.L,001,2021_Feb_23_2059,cal_abstract,2020.2.10,59.92089242838738,
,Fix2,stimuli/Dangerous/38.jpg,right,,,,,,,,,,,0,41,41,41,,,,,,,,,,,,,,,,,,,,,,,,,,,,,,,,,,,324.0218889999669,None,324.0218889999669,None,right,1,1.092892299988307,324.0218889999669,None,1,325.14516630000435,None,,,,,,,,,,,,,,,,,,,,,,,,,,,,,,,,,,,,,,,,,,,,,,,,,,,,,,,,,,,1.L,001,2021_Feb_23_2059,cal_abstract,2020.2.10,59.92089242838738,
,Fix1,stimuli/School/18.jpg,left,,,,,,,,,,,0,42,42,42,,,,,,,,,,,,,,,,,,,,,,,,,,,,,,,,,,,325.95273859996814,None,325.95273859996814,None,right,0,1.6818826000089757,325.95273859996814,None,0,327.67790469998727,None,,,,,,,,,,,,,,,,,,,,,,,,,,,,,,,,,,,,,,,,,,,,,,,,,,,,,,,,,,,1.L,001,2021_Feb_23_2059,cal_abstract,2020.2.10,59.92089242838738,
,Fix1,stimuli/School/36.jpg,left,,,,,,,,,,,0,43,43,43,,,,,,,,,,,,,,,,,,,,,,,,,,,,,,,,,,,328.46620999998413,None,328.46620999998413,None,left,1,1.6486341000418179,328.46620999998413,None,1,330.1483319000108,None,,,,,,,,,,,,,,,,,,,,,,,,,,,,,,,,,,,,,,,,,,,,,,,,,,,,,,,,,,,1.L,001,2021_Feb_23_2059,cal_abstract,2020.2.10,59.92089242838738,
,Fix1,stimuli/School/48.jpg,left,,,,,,,,,,,0,44,44,44,,,,,,,,,,,,,,,,,,,,,,,,,,,,,,,,,,,330.9346511999611,None,330.9346511999611,None,left,1,1.0800234000198543,330.9346511999611,None,1,332.03371290001087,None,,,,,,,,,,,,,,,,,,,,,,,,,,,,,,,,,,,,,,,,,,,,,,,,,,,,,,,,,,,1.L,001,2021_Feb_23_2059,cal_abstract,2020.2.10,59.92089242838738,
,Fix1,stimuli/School/42.jpg,left,,,,,,,,,,,0,45,45,45,,,,,,,,,,,,,,,,,,,,,,,,,,,,,,,,,,,332.82387169997673,None,332.82387169997673,None,left,1,1.0220489999628626,332.82387169997673,None,1,333.86974589998135,None,,,,,,,,,,,,,,,,,,,,,,,,,,,,,,,,,,,,,,,,,,,,,,,,,,,,,,,,,,,1.L,001,2021_Feb_23_2059,cal_abstract,2020.2.10,59.92089242838738,
,Cond,stimuli/Small/23.jpg,right,,,,,,,,,,,0,46,46,46,,,,,,,,,,,,,,,,,,,,,,,,,,,,,,,,,,,334.6930617999751,None,334.6930617999751,None,left,0,1.1324820999871008,334.6930617999751,None,0,335.873283599969,None,,,,,,,,,,,,,,,,,,,,,,,,,,,,,,,,,,,,,,,,,,,,,,,,,,,,,,,,,,,1.L,001,2021_Feb_23_2059,cal_abstract,2020.2.10,59.92089242838738,
,Cond,stimuli/Small/38.jpg,left,,,,,,,,,,,0,47,47,47,,,,,,,,,,,,,,,,,,,,,,,,,,,,,,,,,,,336.6741328999633,None,336.6741328999633,None,left,1,1.6515615999815054,336.6741328999633,None,1,338.36823909997474,None,,,,,,,,,,,,,,,,,,,,,,,,,,,,,,,,,,,,,,,,,,,,,,,,,,,,,,,,,,,1.L,001,2021_Feb_23_2059,cal_abstract,2020.2.10,59.92089242838738,
,Cond,stimuli/Small/55.jpg,right,,,,,,,,,,,0,48,48,48,,,,,,,,,,,,,,,,,,,,,,,,,,,,,,,,,,,339.1526056000148,None,339.1526056000148,None,left,0,1.5230832999804989,339.1526056000148,None,0,340.72764050000114,None,,,,,,,,,,,,,,,,,,,,,,,,,,,,,,,,,,,,,,,,,,,,,,,,,,,,,,,,,,,1.L,001,2021_Feb_23_2059,cal_abstract,2020.2.10,59.92089242838738,
,Cond,stimuli/Small/1.jpg,left,,,,,,,,,,,0,49,49,49,,,,,,,,,,,,,,,,,,,,,,,,,,,,,,,,,,,341.50717150000855,None,341.50717150000855,None,left,1,1.2182767000049353,341.50717150000855,None,1,342.7725091999746,None,,,,,,,,,,,,,,,,,,,,,,,,,,,,,,,,,,,,,,,,,,,,,,,,,,,,,,,,,,,1.L,001,2021_Feb_23_2059,cal_abstract,2020.2.10,59.92089242838738,
,Fix1,stimuli/School/6.jpg,left,,,,,,,,,,,0,50,50,50,,,,,,,,,,,,,,,,,,,,,,,,,,,,,,,,,,,343.5415519999806,None,343.5415519999806,None,left,1,1.9044463000027463,343.5415519999806,None,1,345.4760963000008,None,,,,,,,,,,,,,,,,,,,,,,,,,,,,,,,,,,,,,,,,,,,,,,,,,,,,,,,,,,,1.L,001,2021_Feb_23_2059,cal_abstract,2020.2.10,59.92089242838738,
,Fix2,stimuli/Dangerous/18.jpg,right,,,,,,,,,,,0,51,51,51,,,,,,,,,,,,,,,,,,,,,,,,,,,,,,,,,,,346.2745748999878,None,346.2745748999878,None,right,1,1.0210766000091098,346.2745748999878,None,1,347.32713649998186,None,,,,,,,,,,,,,,,,,,,,,,,,,,,,,,,,,,,,,,,,,,,,,,,,,,,,,,,,,,,1.L,001,2021_Feb_23_2059,cal_abstract,2020.2.10,59.92089242838738,
,Fix1,stimuli/School/1.jpg,left,,,,,,,,,,,0,52,52,52,,,,,,,,,,,,,,,,,,,,,,,,,,,,,,,,,,,348.13636110001244,None,348.13636110001244,None,left,1,3.7195556000224315,348.13636110001244,None,1,351.88453939999454,None,,,,,,,,,,,,,,,,,,,,,,,,,,,,,,,,,,,,,,,,,,,,,,,,,,,,,,,,,,,1.L,001,2021_Feb_23_2059,cal_abstract,2020.2.10,59.92089242838738,
,Cond,stimuli/Small/33.jpg,right,,,,,,,,,,,0,53,53,53,,,,,,,,,,,,,,,,,,,,,,,,,,,,,,,,,,,352.6811252000043,None,352.6811252000043,None,left,0,1.2242796000209637,352.6811252000043,None,0,353.9458270999603,None,,,,,,,,,,,,,,,,,,,,,,,,,,,,,,,,,,,,,,,,,,,,,,,,,,,,,,,,,,,1.L,001,2021_Feb_23_2059,cal_abstract,2020.2.10,59.92089242838738,
,Cond,stimuli/Small/12.jpg,left,,,,,,,,,,,0,54,54,54,,,,,,,,,,,,,,,,,,,,,,,,,,,,,,,,,,,354.7249667000142,None,354.7249667000142,None,left,1,2.25081139995018,354.7249667000142,None,1,357.0170030000154,None,,,,,,,,,,,,,,,,,,,,,,,,,,,,,,,,,,,,,,,,,,,,,,,,,,,,,,,,,,,1.L,001,2021_Feb_23_2059,cal_abstract,2020.2.10,59.92089242838738,
,Cond,stimuli/Small/17.jpg,right,,,,,,,,,,,0,55,55,55,,,,,,,,,,,,,,,,,,,,,,,,,,,,,,,,,,,357.7993318999652,None,357.7993318999652,None,left,0,1.456510599993635,357.7993318999652,None,0,359.3045199000044,None,,,,,,,,,,,,,,,,,,,,,,,,,,,,,,,,,,,,,,,,,,,,,,,,,,,,,,,,,,,1.L,001,2021_Feb_23_2059,cal_abstract,2020.2.10,59.92089242838738,
,Fix1,stimuli/School/17.jpg,left,,,,,,,,,,,0,56,56,56,,,,,,,,,,,,,,,,,,,,,,,,,,,,,,,,,,,360.0804477999918,None,360.0804477999918,None,left,1,2.3851877999841236,360.0804477999918,None,1,362.5016003999626,None,,,,,,,,,,,,,,,,,,,,,,,,,,,,,,,,,,,,,,,,,,,,,,,,,,,,,,,,,,,1.L,001,2021_Feb_23_2059,cal_abstract,2020.2.10,59.92089242838738,
,Cond,stimuli/Small/11.jpg,right,,,,,,,,,,,0,57,57,57,,,,,,,,,,,,,,,,,,,,,,,,,,,,,,,,,,,363.28584039997077,None,363.28584039997077,None,left,0,1.949850700038951,363.28584039997077,None,0,365.2778641000041,None,,,,,,,,,,,,,,,,,,,,,,,,,,,,,,,,,,,,,,,,,,,,,,,,,,,,,,,,,,,1.L,001,2021_Feb_23_2059,cal_abstract,2020.2.10,59.92089242838738,
,Fix1,stimuli/School/33.jpg,left,,,,,,,,,,,0,58,58,58,,,,,,,,,,,,,,,,,,,,,,,,,,,,,,,,,,,366.0761200999841,None,366.0761200999841,None,right,0,1.1901411000289954,366.0761200999841,None,0,367.2921973000048,None,,,,,,,,,,,,,,,,,,,,,,,,,,,,,,,,,,,,,,,,,,,,,,,,,,,,,,,,,,,1.L,001,2021_Feb_23_2059,cal_abstract,2020.2.10,59.92089242838738,
,Cond,stimuli/Small/18.jpg,right,,,,,,,,,,,0,59,59,59,,,,,,,,,,,,,,,,,,,,,,,,,,,,,,,,,,,368.0948120999965,None,368.0948120999965,None,left,0,1.030764899973292,368.0948120999965,None,0,369.143067899975,None,,,,,,,,,,,,,,,,,,,,,,,,,,,,,,,,,,,,,,,,,,,,,,,,,,,,,,,,,,,1.L,001,2021_Feb_23_2059,cal_abstract,2020.2.10,59.92089242838738,
,Fix2,stimuli/Dangerous/61.jpg,right,,,,,,,,,,,0,60,60,60,,,,,,,,,,,,,,,,,,,,,,,,,,,,,,,,,,,369.96209779998753,None,369.96209779998753,None,right,1,1.0933817999903113,369.96209779998753,None,1,371.09129429998575,None,,,,,,,,,,,,,,,,,,,,,,,,,,,,,,,,,,,,,,,,,,,,,,,,,,,,,,,,,,,1.L,001,2021_Feb_23_2059,cal_abstract,2020.2.10,59.92089242838738,
,Fix2,stimuli/Dangerous/32.jpg,right,,,,,,,,,,,0,61,61,61,,,,,,,,,,,,,,,,,,,,,,,,,,,,,,,,,,,371.8760799000156,None,371.8760799000156,None,right,1,1.0996959999902174,371.8760799000156,None,1,372.9969614999718,None,,,,,,,,,,,,,,,,,,,,,,,,,,,,,,,,,,,,,,,,,,,,,,,,,,,,,,,,,,,1.L,001,2021_Feb_23_2059,cal_abstract,2020.2.10,59.92089242838738,
,Fix2,stimuli/Dangerous/28.jpg,right,,,,,,,,,,,0,62,62,62,,,,,,,,,,,,,,,,,,,,,,,,,,,,,,,,,,,373.8007592000067,None,373.8007592000067,None,right,1,1.1255101999850012,373.8007592000067,None,1,374.9462498999783,None,,,,,,,,,,,,,,,,,,,,,,,,,,,,,,,,,,,,,,,,,,,,,,,,,,,,,,,,,,,1.L,001,2021_Feb_23_2059,cal_abstract,2020.2.10,59.92089242838738,
,Cond,stimuli/Small/16.jpg,left,,,,,,,,,,,0,63,63,63,,,,,,,,,,,,,,,,,,,,,,,,,,,,,,,,,,,375.7533833999769,None,375.7533833999769,None,right,0,1.3730750000104308,375.7533833999769,None,0,377.1673454999691,None,,,,,,,,,,,,,,,,,,,,,,,,,,,,,,,,,,,,,,,,,,,,,,,,,,,,,,,,,,,1.L,001,2021_Feb_23_2059,cal_abstract,2020.2.10,59.92089242838738,
,Cond,stimuli/Small/14.jpg,right,,,,,,,,,,,0,64,64,64,,,,,,,,,,,,,,,,,,,,,,,,,,,,,,,,,,,377.96051539998734,None,377.96051539998734,None,left,0,1.2163746999576688,377.96051539998734,None,0,379.19935929996427,None,,,,,,,,,,,,,,,,,,,,,,,,,,,,,,,,,,,,,,,,,,,,,,,,,,,,,,,,,,,1.L,001,2021_Feb_23_2059,cal_abstract,2020.2.10,59.92089242838738,
,Fix2,stimuli/Dangerous/35.jpg,right,,,,,,,,,,,0,65,65,65,,,,,,,,,,,,,,,,,,,,,,,,,,,,,,,,,,,380.00793709995924,None,380.00793709995924,None,right,1,0.9186923999805003,380.00793709995924,None,1,380.9689378999756,None,,,,,,,,,,,,,,,,,,,,,,,,,,,,,,,,,,,,,,,,,,,,,,,,,,,,,,,,,,,1.L,001,2021_Feb_23_2059,cal_abstract,2020.2.10,59.92089242838738,
,Fix2,stimuli/Dangerous/3.jpg,right,,,,,,,,,,,0,66,66,66,,,,,,,,,,,,,,,,,,,,,,,,,,,,,,,,,,,381.7346233999706,None,381.7346233999706,None,right,1,1.13208490004763,381.7346233999706,None,1,382.88600499997847,None,,,,,,,,,,,,,,,,,,,,,,,,,,,,,,,,,,,,,,,,,,,,,,,,,,,,,,,,,,,1.L,001,2021_Feb_23_2059,cal_abstract,2020.2.10,59.92089242838738,
,Cond,stimuli/Small/45.jpg,left,,,,,,,,,,,0,67,67,67,,,,,,,,,,,,,,,,,,,,,,,,,,,,,,,,,,,383.691088499967,None,383.691088499967,None,left,1,1.1952381000155583,383.691088499967,None,1,384.9199984999723,None,,,,,,,,,,,,,,,,,,,,,,,,,,,,,,,,,,,,,,,,,,,,,,,,,,,,,,,,,,,1.L,001,2021_Feb_23_2059,cal_abstract,2020.2.10,59.92089242838738,
,Fix2,stimuli/Dangerous/10.jpg,right,,,,,,,,,,,0,68,68,68,,,,,,,,,,,,,,,,,,,,,,,,,,,,,,,,,,,385.72612489998573,None,385.72612489998573,None,right,1,1.0305114000220783,385.72612489998573,None,1,386.7870621999609,None,,,,,,,,,,,,,,,,,,,,,,,,,,,,,,,,,,,,,,,,,,,,,,,,,,,,,,,,,,,1.L,001,2021_Feb_23_2059,cal_abstract,2020.2.10,59.92089242838738,
,Fix2,stimuli/Dangerous/9.jpg,right,,,,,,,,,,,0,69,69,69,,,,,,,,,,,,,,,,,,,,,,,,,,,,,,,,,,,387.57170839997707,None,387.57170839997707,None,right,1,1.5850567999877967,387.57170839997707,None,1,389.189467899967,None,,,,,,,,,,,,,,,,,,,,,,,,,,,,,,,,,,,,,,,,,,,,,,,,,,,,,,,,,,,1.L,001,2021_Feb_23_2059,cal_abstract,2020.2.10,59.92089242838738,
,Cond,stimuli/Small/31.jpg,left,,,,,,,,,,,0,70,70,70,,,,,,,,,,,,,,,,,,,,,,,,,,,,,,,,,,,389.9930752000073,None,389.9930752000073,None,left,1,3.2335929999826476,389.9930752000073,None,1,393.2584326000069,None,,,,,,,,,,,,,,,,,,,,,,,,,,,,,,,,,,,,,,,,,,,,,,,,,,,,,,,,,,,1.L,001,2021_Feb_23_2059,cal_abstract,2020.2.10,59.92089242838738,
,Fix1,stimuli/School/19.jpg,left,,,,,,,,,,,0,71,71,71,,,,,,,,,,,,,,,,,,,,,,,,,,,,,,,,,,,394.0418616000097,None,394.0418616000097,None,left,1,3.153753400023561,394.0418616000097,None,1,397.225448400015,None,,,,,,,,,,,,,,,,,,,,,,,,,,,,,,,,,,,,,,,,,,,,,,,,,,,,,,,,,,,1.L,001,2021_Feb_23_2059,cal_abstract,2020.2.10,59.92089242838738,
,Fix1,stimuli/School/11.jpg,left,,,,,,,,,,,0,72,72,72,,,,,,,,,,,,,,,,,,,,,,,,,,,,,,,,,,,398.0275521000149,None,398.0275521000149,None,right,0,1.748902499966789,398.0275521000149,None,0,399.81681960000424,None,,,,,,,,,,,,,,,,,,,,,,,,,,,,,,,,,,,,,,,,,,,,,,,,,,,,,,,,,,,1.L,001,2021_Feb_23_2059,cal_abstract,2020.2.10,59.92089242838738,
,Fix1,stimuli/School/31.jpg,left,,,,,,,,,,,0,73,73,73,,,,,,,,,,,,,,,,,,,,,,,,,,,,,,,,,,,400.5924100999837,None,400.5924100999837,None,left,1,1.1542491000145674,400.5924100999837,None,1,401.7775992999668,None,,,,,,,,,,,,,,,,,,,,,,,,,,,,,,,,,,,,,,,,,,,,,,,,,,,,,,,,,,,1.L,001,2021_Feb_23_2059,cal_abstract,2020.2.10,59.92089242838738,
,Fix1,stimuli/School/21.jpg,left,,,,,,,,,,,0,74,74,74,,,,,,,,,,,,,,,,,,,,,,,,,,,,,,,,,,,402.560364999983,None,402.560364999983,None,left,1,1.8961733000469394,402.560364999983,None,1,404.48299739998765,None,,,,,,,,,,,,,,,,,,,,,,,,,,,,,,,,,,,,,,,,,,,,,,,,,,,,,,,,,,,1.L,001,2021_Feb_23_2059,cal_abstract,2020.2.10,59.92089242838738,
,Fix1,stimuli/School/55.jpg,left,,,,,,,,,,,0,75,75,75,,,,,,,,,,,,,,,,,,,,,,,,,,,,,,,,,,,405.2788939999882,None,405.2788939999882,None,left,1,5.118176700023469,405.2788939999882,None,1,410.421712499985,None,,,,,,,,,,,,,,,,,,,,,,,,,,,,,,,,,,,,,,,,,,,,,,,,,,,,,,,,,,,1.L,001,2021_Feb_23_2059,cal_abstract,2020.2.10,59.92089242838738,
,Cond,stimuli/Small/32.jpg,right,,,,,,,,,,,0,76,76,76,,,,,,,,,,,,,,,,,,,,,,,,,,,,,,,,,,,411.2163273000042,None,411.2163273000042,None,right,1,1.3701931000105105,411.2163273000042,None,1,412.60673040000256,None,,,,,,,,,,,,,,,,,,,,,,,,,,,,,,,,,,,,,,,,,,,,,,,,,,,,,,,,,,,1.L,001,2021_Feb_23_2059,cal_abstract,2020.2.10,59.92089242838738,
,Fix2,stimuli/Dangerous/48.jpg,right,,,,,,,,,,,0,77,77,77,,,,,,,,,,,,,,,,,,,,,,,,,,,,,,,,,,,413.4393442000146,None,413.4393442000146,None,right,1,1.2572718000155874,413.4393442000146,None,1,414.72136139997747,None,,,,,,,,,,,,,,,,,,,,,,,,,,,,,,,,,,,,,,,,,,,,,,,,,,,,,,,,,,,1.L,001,2021_Feb_23_2059,cal_abstract,2020.2.10,59.92089242838738,
,Cond,stimuli/Small/5.jpg,left,,,,,,,,,,,0,78,78,78,,,,,,,,,,,,,,,,,,,,,,,,,,,,,,,,,,,415.5183320000069,None,415.5183320000069,None,left,1,1.809644099965226,415.5183320000069,None,1,417.35869520000415,None,,,,,,,,,,,,,,,,,,,,,,,,,,,,,,,,,,,,,,,,,,,,,,,,,,,,,,,,,,,1.L,001,2021_Feb_23_2059,cal_abstract,2020.2.10,59.92089242838738,
,Fix1,stimuli/School/37.jpg,left,,,,,,,,,,,0,79,79,79,,,,,,,,,,,,,,,,,,,,,,,,,,,,,,,,,,,418.1587104999926,None,418.1587104999926,None,left,1,2.0390903999796137,418.1587104999926,None,1,420.2255762999994,None,,,,,,,,,,,,,,,,,,,,,,,,,,,,,,,,,,,,,,,,,,,,,,,,,,,,,,,,,,,1.L,001,2021_Feb_23_2059,cal_abstract,2020.2.10,59.92089242838738,
,Fix1,stimuli/School/27.jpg,left,,,,,,,,,,,0,80,80,80,,,,,,,,,,,,,,,,,,,,,,,,,,,,,,,,,,,420.99755129998084,None,420.99755129998084,None,left,1,1.8792972000082955,420.99755129998084,None,1,422.893151199969,None,,,,,,,,,,,,,,,,,,,,,,,,,,,,,,,,,,,,,,,,,,,,,,,,,,,,,,,,,,,1.L,001,2021_Feb_23_2059,cal_abstract,2020.2.10,59.92089242838738,
,Cond,stimuli/Small/28.jpg,right,,,,,,,,,,,0,81,81,81,,,,,,,,,,,,,,,,,,,,,,,,,,,,,,,,,,,423.68072120001307,None,423.68072120001307,None,left,0,2.1871699999901466,423.68072120001307,None,0,425.9155000000028,None,,,,,,,,,,,,,,,,,,,,,,,,,,,,,,,,,,,,,,,,,,,,,,,,,,,,,,,,,,,1.L,001,2021_Feb_23_2059,cal_abstract,2020.2.10,59.92089242838738,
,Cond,stimuli/Small/30.jpg,left,,,,,,,,,,,0,82,82,82,,,,,,,,,,,,,,,,,,,,,,,,,,,,,,,,,,,426.70019120001234,None,426.70019120001234,None,left,1,2.3577138999826275,426.70019120001234,None,1,429.098856800003,None,,,,,,,,,,,,,,,,,,,,,,,,,,,,,,,,,,,,,,,,,,,,,,,,,,,,,,,,,,,1.L,001,2021_Feb_23_2059,cal_abstract,2020.2.10,59.92089242838738,
,Fix1,stimuli/School/59.jpg,left,,,,,,,,,,,0,83,83,83,,,,,,,,,,,,,,,,,,,,,,,,,,,,,,,,,,,429.8825452000019,None,429.8825452000019,None,right,0,3.1054217999917455,429.8825452000019,None,0,433.03400380001403,None,,,,,,,,,,,,,,,,,,,,,,,,,,,,,,,,,,,,,,,,,,,,,,,,,,,,,,,,,,,1.L,001,2021_Feb_23_2059,cal_abstract,2020.2.10,59.92089242838738,
,Fix2,stimuli/Dangerous/7.jpg,right,,,,,,,,,,,0,84,84,84,,,,,,,,,,,,,,,,,,,,,,,,,,,,,,,,,,,433.82660799997393,None,433.82660799997393,None,right,1,1.491063599998597,433.82660799997393,None,1,435.3550336000044,None,,,,,,,,,,,,,,,,,,,,,,,,,,,,,,,,,,,,,,,,,,,,,,,,,,,,,,,,,,,1.L,001,2021_Feb_23_2059,cal_abstract,2020.2.10,59.92089242838738,
,Cond,stimuli/Small/37.jpg,left,,,,,,,,,,,0,85,85,85,,,,,,,,,,,,,,,,,,,,,,,,,,,,,,,,,,,436.13778369996,None,436.13778369996,None,left,1,1.3997848999570124,436.13778369996,None,1,437.55592720001005,None,,,,,,,,,,,,,,,,,,,,,,,,,,,,,,,,,,,,,,,,,,,,,,,,,,,,,,,,,,,1.L,001,2021_Feb_23_2059,cal_abstract,2020.2.10,59.92089242838738,
,Fix1,stimuli/School/13.jpg,left,,,,,,,,,,,0,86,86,86,,,,,,,,,,,,,,,,,,,,,,,,,,,,,,,,,,,438.38133609999204,None,438.38133609999204,None,left,1,1.656313199957367,438.38133609999204,None,1,440.05874569999287,None,,,,,,,,,,,,,,,,,,,,,,,,,,,,,,,,,,,,,,,,,,,,,,,,,,,,,,,,,,,1.L,001,2021_Feb_23_2059,cal_abstract,2020.2.10,59.92089242838738,
,Fix2,stimuli/Dangerous/14.jpg,right,,,,,,,,,,,0,87,87,87,,,,,,,,,,,,,,,,,,,,,,,,,,,,,,,,,,,440.8482665999909,None,440.8482665999909,None,right,1,0.8892514000181109,440.8482665999909,None,1,441.75962159998016,None,,,,,,,,,,,,,,,,,,,,,,,,,,,,,,,,,,,,,,,,,,,,,,,,,,,,,,,,,,,1.L,001,2021_Feb_23_2059,cal_abstract,2020.2.10,59.92089242838738,
,Cond,stimuli/Small/50.jpg,left,,,,,,,,,,,0,88,88,88,,,,,,,,,,,,,,,,,,,,,,,,,,,,,,,,,,,442.5387666999595,None,442.5387666999595,None,left,1,1.3291741000139154,442.5387666999595,None,1,443.8936440999969,None,,,,,,,,,,,,,,,,,,,,,,,,,,,,,,,,,,,,,,,,,,,,,,,,,,,,,,,,,,,1.L,001,2021_Feb_23_2059,cal_abstract,2020.2.10,59.92089242838738,
,Fix2,stimuli/Dangerous/63.jpg,right,,,,,,,,,,,0,89,89,89,,,,,,,,,,,,,,,,,,,,,,,,,,,,,,,,,,,444.7149189999909,None,444.7149189999909,None,right,1,1.3629367999965325,444.7149189999909,None,1,446.09692699997686,None,,,,,,,,,,,,,,,,,,,,,,,,,,,,,,,,,,,,,,,,,,,,,,,,,,,,,,,,,,,1.L,001,2021_Feb_23_2059,cal_abstract,2020.2.10,59.92089242838738,
,Fix2,stimuli/Dangerous/0.jpg,right,,,,,,,,,,,0,90,90,90,,,,,,,,,,,,,,,,,,,,,,,,,,,,,,,,,,,446.88831209996715,None,446.88831209996715,None,right,1,1.0992746999836527,446.88831209996715,None,1,448.01366469997447,None,,,,,,,,,,,,,,,,,,,,,,,,,,,,,,,,,,,,,,,,,,,,,,,,,,,,,,,,,,,1.L,001,2021_Feb_23_2059,cal_abstract,2020.2.10,59.92089242838738,
,Fix1,stimuli/School/32.jpg,left,,,,,,,,,,,0,91,91,91,,,,,,,,,,,,,,,,,,,,,,,,,,,,,,,,,,,448.81376559997443,None,448.81376559997443,None,right,0,1.234574900008738,448.81376559997443,None,0,450.09787190001225,None,,,,,,,,,,,,,,,,,,,,,,,,,,,,,,,,,,,,,,,,,,,,,,,,,,,,,,,,,,,1.L,001,2021_Feb_23_2059,cal_abstract,2020.2.10,59.92089242838738,
,Fix1,stimuli/School/29.jpg,left,,,,,,,,,,,0,92,92,92,,,,,,,,,,,,,,,,,,,,,,,,,,,,,,,,,,,450.87568930001,None,450.87568930001,None,left,1,1.862024299975019,450.87568930001,None,1,452.7857165999594,None,,,,,,,,,,,,,,,,,,,,,,,,,,,,,,,,,,,,,,,,,,,,,,,,,,,,,,,,,,,1.L,001,2021_Feb_23_2059,cal_abstract,2020.2.10,59.92089242838738,
,Cond,stimuli/Small/7.jpg,right,,,,,,,,,,,0,93,93,93,,,,,,,,,,,,,,,,,,,,,,,,,,,,,,,,,,,453.551132099994,None,453.551132099994,None,left,0,1.8266232999740168,453.551132099994,None,0,455.4175736999605,None,,,,,,,,,,,,,,,,,,,,,,,,,,,,,,,,,,,,,,,,,,,,,,,,,,,,,,,,,,,1.L,001,2021_Feb_23_2059,cal_abstract,2020.2.10,59.92089242838738,
,Fix2,stimuli/Dangerous/19.jpg,right,,,,,,,,,,,0,94,94,94,,,,,,,,,,,,,,,,,,,,,,,,,,,,,,,,,,,456.1934006999945,None,456.1934006999945,None,right,1,1.1233014999888837,456.1934006999945,None,1,457.33347710000817,None,,,,,,,,,,,,,,,,,,,,,,,,,,,,,,,,,,,,,,,,,,,,,,,,,,,,,,,,,,,1.L,001,2021_Feb_23_2059,cal_abstract,2020.2.10,59.92089242838738,
,Cond,stimuli/Small/51.jpg,left,,,,,,,,,,,0,95,95,95,,,,,,,,,,,,,,,,,,,,,,,,,,,,,,,,,,,458.1315831000102,None,458.1315831000102,None,left,1,1.2573163000051863,458.1315831000102,None,1,459.42096179997316,None,,,,,,,,,,,,,,,,,,,,,,,,,,,,,,,,,,,,,,,,,,,,,,,,,,,,,,,,,,,1.L,001,2021_Feb_23_2059,cal_abstract,2020.2.10,59.92089242838738,
,Fix2,stimuli/Dangerous/4.jpg,right,,,,,,,,,,,0,96,96,96,,,,,,,,,,,,,,,,,,,,,,,,,,,,,,,,,,,460.2430313999648,None,460.2430313999648,None,right,1,1.1856348000001162,460.2430313999648,None,1,461.4569985999842,None,,,,,,,,,,,,,,,,,,,,,,,,,,,,,,,,,,,,,,,,,,,,,,,,,,,,,,,,,,,1.L,001,2021_Feb_23_2059,cal_abstract,2020.2.10,59.92089242838738,
,Cond,stimuli/Small/24.jpg,left,,,,,,,,,,,0,97,97,97,,,,,,,,,,,,,,,,,,,,,,,,,,,,,,,,,,,462.2807899999898,None,462.2807899999898,None,left,1,5.147974300023634,462.2807899999898,None,1,467.45903799997177,None,,,,,,,,,,,,,,,,,,,,,,,,,,,,,,,,,,,,,,,,,,,,,,,,,,,,,,,,,,,1.L,001,2021_Feb_23_2059,cal_abstract,2020.2.10,59.92089242838738,
,Fix1,stimuli/School/58.jpg,left,,,,,,,,,,,0,98,98,98,,,,,,,,,,,,,,,,,,,,,,,,,,,,,,,,,,,468.24044229998253,None,468.24044229998253,None,left,1,1.5678971000015736,468.24044229998253,None,1,469.82741600001464,None,,,,,,,,,,,,,,,,,,,,,,,,,,,,,,,,,,,,,,,,,,,,,,,,,,,,,,,,,,,1.L,001,2021_Feb_23_2059,cal_abstract,2020.2.10,59.92089242838738,
,Cond,stimuli/Small/35.jpg,right,,,,,,,,,,,0,99,99,99,,,,,,,,,,,,,,,,,,,,,,,,,,,,,,,,,,,470.60871150001185,None,470.60871150001185,None,left,0,2.9797572000534274,470.60871150001185,None,0,473.63018839998404,None,,,,,,,,,,,,,,,,,,,,,,,,,,,,,,,,,,,,,,,,,,,,,,,,,,,,,,,,,,,1.L,001,2021_Feb_23_2059,cal_abstract,2020.2.10,59.92089242838738,
,Cond,stimuli/Small/40.jpg,left,,,,,,,,,,,0,100,100,100,,,,,,,,,,,,,,,,,,,,,,,,,,,,,,,,,,,474.4115313999937,None,474.4115313999937,None,left,1,1.157236600003671,474.4115313999937,None,1,475.6201147999964,None,,,,,,,,,,,,,,,,,,,,,,,,,,,,,,,,,,,,,,,,,,,,,,,,,,,,,,,,,,,1.L,001,2021_Feb_23_2059,cal_abstract,2020.2.10,59.92089242838738,
,Cond,stimuli/Small/3.jpg,right,,,,,,,,,,,0,101,101,101,,,,,,,,,,,,,,,,,,,,,,,,,,,,,,,,,,,476.39573449996533,None,476.39573449996533,None,right,1,1.0426739000249654,476.39573449996533,None,1,477.4673374000122,None,,,,,,,,,,,,,,,,,,,,,,,,,,,,,,,,,,,,,,,,,,,,,,,,,,,,,,,,,,,1.L,001,2021_Feb_23_2059,cal_abstract,2020.2.10,59.92089242838738,
,Fix1,stimuli/School/38.jpg,left,,,,,,,,,,,0,102,102,102,,,,,,,,,,,,,,,,,,,,,,,,,,,,,,,,,,,478.26406029995997,None,478.26406029995997,None,left,1,0.7846433999948204,478.26406029995997,None,1,479.0678019999759,None,,,,,,,,,,,,,,,,,,,,,,,,,,,,,,,,,,,,,,,,,,,,,,,,,,,,,,,,,,,1.L,001,2021_Feb_23_2059,cal_abstract,2020.2.10,59.92089242838738,
,Fix2,stimuli/Dangerous/26.jpg,right,,,,,,,,,,,0,103,103,103,,,,,,,,,,,,,,,,,,,,,,,,,,,,,,,,,,,479.8831201000139,None,479.8831201000139,None,right,1,1.155611999973189,479.8831201000139,None,1,481.06948810000904,None,,,,,,,,,,,,,,,,,,,,,,,,,,,,,,,,,,,,,,,,,,,,,,,,,,,,,,,,,,,1.L,001,2021_Feb_23_2059,cal_abstract,2020.2.10,59.92089242838738,
,Fix1,stimuli/School/51.jpg,left,,,,,,,,,,,0,104,104,104,,,,,,,,,,,,,,,,,,,,,,,,,,,,,,,,,,,481.870611499995,None,481.870611499995,None,left,1,1.5678464000229724,481.870611499995,None,1,483.4734893999994,None,,,,,,,,,,,,,,,,,,,,,,,,,,,,,,,,,,,,,,,,,,,,,,,,,,,,,,,,,,,1.L,001,2021_Feb_23_2059,cal_abstract,2020.2.10,59.92089242838738,
,Cond,stimuli/Small/56.jpg,right,,,,,,,,,,,0,105,105,105,,,,,,,,,,,,,,,,,,,,,,,,,,,,,,,,,,,484.2651207000017,None,484.2651207000017,None,right,1,0.9935482000000775,484.2651207000017,None,1,485.2885080999695,None,,,,,,,,,,,,,,,,,,,,,,,,,,,,,,,,,,,,,,,,,,,,,,,,,,,,,,,,,,,1.L,001,2021_Feb_23_2059,cal_abstract,2020.2.10,59.92089242838738,
,Cond,stimuli/Small/44.jpg,left,,,,,,,,,,,0,106,106,106,,,,,,,,,,,,,,,,,,,,,,,,,,,,,,,,,,,486.09053960000165,None,486.09053960000165,None,left,1,0.9982169999857433,486.09053960000165,None,1,487.1063936999999,None,,,,,,,,,,,,,,,,,,,,,,,,,,,,,,,,,,,,,,,,,,,,,,,,,,,,,,,,,,,1.L,001,2021_Feb_23_2059,cal_abstract,2020.2.10,59.92089242838738,
,Fix2,stimuli/Dangerous/36.jpg,right,,,,,,,,,,,0,107,107,107,,,,,,,,,,,,,,,,,,,,,,,,,,,,,,,,,,,487.90512599999784,None,487.90512599999784,None,right,1,1.3534881999948993,487.90512599999784,None,1,489.29136169998674,None,,,,,,,,,,,,,,,,,,,,,,,,,,,,,,,,,,,,,,,,,,,,,,,,,,,,,,,,,,,1.L,001,2021_Feb_23_2059,cal_abstract,2020.2.10,59.92089242838738,
,Cond,stimuli/Small/54.jpg,left,,,,,,,,,,,0,108,108,108,,,,,,,,,,,,,,,,,,,,,,,,,,,,,,,,,,,490.08850549999624,None,490.08850549999624,None,right,0,2.6100257000070997,490.08850549999624,None,0,492.7431360000046,None,,,,,,,,,,,,,,,,,,,,,,,,,,,,,,,,,,,,,,,,,,,,,,,,,,,,,,,,,,,1.L,001,2021_Feb_23_2059,cal_abstract,2020.2.10,59.92089242838738,
,Fix1,stimuli/School/0.jpg,left,,,,,,,,,,,0,109,109,109,,,,,,,,,,,,,,,,,,,,,,,,,,,,,,,,,,,493.532303999993,None,493.532303999993,None,left,1,0.9063306000316516,493.532303999993,None,1,494.48344009998254,None,,,,,,,,,,,,,,,,,,,,,,,,,,,,,,,,,,,,,,,,,,,,,,,,,,,,,,,,,,,1.L,001,2021_Feb_23_2059,cal_abstract,2020.2.10,59.92089242838738,
,Fix1,stimuli/School/57.jpg,left,,,,,,,,,,,0,110,110,110,,,,,,,,,,,,,,,,,,,,,,,,,,,,,,,,,,,495.2580323999864,None,495.2580323999864,None,left,1,1.4110736000002362,495.2580323999864,None,1,496.696293099958,None,,,,,,,,,,,,,,,,,,,,,,,,,,,,,,,,,,,,,,,,,,,,,,,,,,,,,,,,,,,1.L,001,2021_Feb_23_2059,cal_abstract,2020.2.10,59.92089242838738,
,Fix1,stimuli/School/24.jpg,left,,,,,,,,,,,0,111,111,111,,,,,,,,,,,,,,,,,,,,,,,,,,,,,,,,,,,497.50450039998395,None,497.50450039998395,None,left,1,1.0641471999697387,497.50450039998395,None,1,498.5957688000053,None,,,,,,,,,,,,,,,,,,,,,,,,,,,,,,,,,,,,,,,,,,,,,,,,,,,,,,,,,,,1.L,001,2021_Feb_23_2059,cal_abstract,2020.2.10,59.92089242838738,
,Fix2,stimuli/Dangerous/45.jpg,right,,,,,,,,,,,0,112,112,112,,,,,,,,,,,,,,,,,,,,,,,,,,,,,,,,,,,499.3758785999962,None,499.3758785999962,None,right,1,1.1827981999958865,499.3758785999962,None,1,500.5831755999825,None,,,,,,,,,,,,,,,,,,,,,,,,,,,,,,,,,,,,,,,,,,,,,,,,,,,,,,,,,,,1.L,001,2021_Feb_23_2059,cal_abstract,2020.2.10,59.92089242838738,
,Fix2,stimuli/Dangerous/40.jpg,right,,,,,,,,,,,0,113,113,113,,,,,,,,,,,,,,,,,,,,,,,,,,,,,,,,,,,501.3848343999707,None,501.3848343999707,None,right,1,1.2350476999999955,501.3848343999707,None,1,502.6510455000098,None,,,,,,,,,,,,,,,,,,,,,,,,,,,,,,,,,,,,,,,,,,,,,,,,,,,,,,,,,,,1.L,001,2021_Feb_23_2059,cal_abstract,2020.2.10,59.92089242838738,
,Fix2,stimuli/Dangerous/39.jpg,right,,,,,,,,,,,0,114,114,114,,,,,,,,,,,,,,,,,,,,,,,,,,,,,,,,,,,503.4570558000123,None,503.4570558000123,None,right,1,1.0026096000219695,503.4570558000123,None,1,504.48557969997637,None,,,,,,,,,,,,,,,,,,,,,,,,,,,,,,,,,,,,,,,,,,,,,,,,,,,,,,,,,,,1.L,001,2021_Feb_23_2059,cal_abstract,2020.2.10,59.92089242838738,
,Cond,stimuli/Small/59.jpg,left,,,,,,,,,,,0,115,115,115,,,,,,,,,,,,,,,,,,,,,,,,,,,,,,,,,,,505.2829419999616,None,505.2829419999616,None,left,1,1.0069709999952465,505.2829419999616,None,1,506.3193018999882,None,,,,,,,,,,,,,,,,,,,,,,,,,,,,,,,,,,,,,,,,,,,,,,,,,,,,,,,,,,,1.L,001,2021_Feb_23_2059,cal_abstract,2020.2.10,59.92089242838738,
,Fix2,stimuli/Dangerous/21.jpg,right,,,,,,,,,,,0,116,116,116,,,,,,,,,,,,,,,,,,,,,,,,,,,,,,,,,,,507.119915999996,None,507.119915999996,None,right,1,2.2896087000262924,507.119915999996,None,1,509.4389083000133,None,,,,,,,,,,,,,,,,,,,,,,,,,,,,,,,,,,,,,,,,,,,,,,,,,,,,,,,,,,,1.L,001,2021_Feb_23_2059,cal_abstract,2020.2.10,59.92089242838738,
,Fix1,stimuli/School/15.jpg,left,,,,,,,,,,,0,117,117,117,,,,,,,,,,,,,,,,,,,,,,,,,,,,,,,,,,,510.2475853000069,None,510.2475853000069,None,left,1,1.1819756000186317,510.2475853000069,None,1,511.4564161999733,None,,,,,,,,,,,,,,,,,,,,,,,,,,,,,,,,,,,,,,,,,,,,,,,,,,,,,,,,,,,1.L,001,2021_Feb_23_2059,cal_abstract,2020.2.10,59.92089242838738,
,Fix1,stimuli/School/5.jpg,left,,,,,,,,,,,0,118,118,118,,,,,,,,,,,,,,,,,,,,,,,,,,,,,,,,,,,512.2815233999863,None,512.2815233999863,None,left,1,1.1680742999888025,512.2815233999863,None,1,513.473911100009,None,,,,,,,,,,,,,,,,,,,,,,,,,,,,,,,,,,,,,,,,,,,,,,,,,,,,,,,,,,,1.L,001,2021_Feb_23_2059,cal_abstract,2020.2.10,59.92089242838738,
,Fix1,stimuli/School/46.jpg,left,,,,,,,,,,,0,119,119,119,,,,,,,,,,,,,,,,,,,,,,,,,,,,,,,,,,,514.2610352999764,None,514.2610352999764,None,left,1,1.2383264999953099,514.2610352999764,None,1,515.5265814999584,None,,,,,,,,,,,,,,,,,,,,,,,,,,,,,,,,,,,,,,,,,,,,,,,,,,,,,,,,,,,1.L,001,2021_Feb_23_2059,cal_abstract,2020.2.10,59.92089242838738,
,Fix1,stimuli/School/4.jpg,left,,,,,,,,,,,0,120,120,120,,,,,,,,,,,,,,,,,,,,,,,,,,,,,,,,,,,516.3245651999605,None,516.3245651999605,None,left,1,0.9841572000295855,516.3245651999605,None,1,517.3246866000118,None,,,,,,,,,,,,,,,,,,,,,,,,,,,,,,,,,,,,,,,,,,,,,,,,,,,,,,,,,,,1.L,001,2021_Feb_23_2059,cal_abstract,2020.2.10,59.92089242838738,
,Fix2,stimuli/Dangerous/8.jpg,right,,,,,,,,,,,0,121,121,121,,,,,,,,,,,,,,,,,,,,,,,,,,,,,,,,,,,518.0820228999946,None,518.0820228999946,None,right,1,0.9869804999907501,518.0820228999946,None,1,519.0931565999635,None,,,,,,,,,,,,,,,,,,,,,,,,,,,,,,,,,,,,,,,,,,,,,,,,,,,,,,,,,,,1.L,001,2021_Feb_23_2059,cal_abstract,2020.2.10,59.92089242838738,
,Fix2,stimuli/Dangerous/17.jpg,right,,,,,,,,,,,0,122,122,122,,,,,,,,,,,,,,,,,,,,,,,,,,,,,,,,,,,519.8804987999611,None,519.8804987999611,None,right,1,0.6393495000083931,519.8804987999611,None,1,520.5463968999684,None,,,,,,,,,,,,,,,,,,,,,,,,,,,,,,,,,,,,,,,,,,,,,,,,,,,,,,,,,,,1.L,001,2021_Feb_23_2059,cal_abstract,2020.2.10,59.92089242838738,
,Fix2,stimuli/Dangerous/1.jpg,right,,,,,,,,,,,0,123,123,123,,,,,,,,,,,,,,,,,,,,,,,,,,,,,,,,,,,521.3448892000015,None,521.3448892000015,None,right,1,0.8247293999884278,521.3448892000015,None,1,522.1975249999668,None,,,,,,,,,,,,,,,,,,,,,,,,,,,,,,,,,,,,,,,,,,,,,,,,,,,,,,,,,,,1.L,001,2021_Feb_23_2059,cal_abstract,2020.2.10,59.92089242838738,
,Fix1,stimuli/School/3.jpg,left,,,,,,,,,,,0,124,124,124,,,,,,,,,,,,,,,,,,,,,,,,,,,,,,,,,,,522.9927965999814,None,522.9927965999814,None,right,0,1.2268787999637425,522.9927965999814,None,0,524.2626263999846,None,,,,,,,,,,,,,,,,,,,,,,,,,,,,,,,,,,,,,,,,,,,,,,,,,,,,,,,,,,,1.L,001,2021_Feb_23_2059,cal_abstract,2020.2.10,59.92089242838738,
,Fix2,stimuli/Dangerous/37.jpg,right,,,,,,,,,,,0,125,125,125,,,,,,,,,,,,,,,,,,,,,,,,,,,,,,,,,,,525.0426429999643,None,525.0426429999643,None,left,0,0.7170282999868505,525.0426429999643,None,0,525.7844114999752,None,,,,,,,,,,,,,,,,,,,,,,,,,,,,,,,,,,,,,,,,,,,,,,,,,,,,,,,,,,,1.L,001,2021_Feb_23_2059,cal_abstract,2020.2.10,59.92089242838738,
,Fix1,stimuli/School/22.jpg,left,,,,,,,,,,,0,126,126,126,,,,,,,,,,,,,,,,,,,,,,,,,,,,,,,,,,,526.6321103000082,None,526.6321103000082,None,left,1,1.5878138999687508,526.6321103000082,None,1,528.2653135000146,None,,,,,,,,,,,,,,,,,,,,,,,,,,,,,,,,,,,,,,,,,,,,,,,,,,,,,,,,,,,1.L,001,2021_Feb_23_2059,cal_abstract,2020.2.10,59.92089242838738,
,Fix2,stimuli/Dangerous/51.jpg,right,,,,,,,,,,,0,127,127,127,,,,,,,,,,,,,,,,,,,,,,,,,,,,,,,,,,,529.0547932999907,None,529.0547932999907,None,right,1,0.7253645999589935,529.0547932999907,None,1,529.8045807000017,None,,,,,,,,,,,,,,,,,,,,,,,,,,,,,,,,,,,,,,,,,,,,,,,,,,,,,,,,,,,1.L,001,2021_Feb_23_2059,cal_abstract,2020.2.10,59.92089242838738,
,Cond,stimuli/Small/6.jpg,left,,,,,,,,,,,0,128,128,128,,,,,,,,,,,,,,,,,,,,,,,,,,,,,,,,,,,530.6020113999839,None,530.6020113999839,None,left,1,1.1778938999632373,530.6020113999839,None,1,531.8033559999894,None,,,,,,,,,,,,,,,,,,,,,,,,,,,,,,,,,,,,,,,,,,,,,,,,,,,,,,,,,,,1.L,001,2021_Feb_23_2059,cal_abstract,2020.2.10,59.92089242838738,
,Fix1,stimuli/School/12.jpg,left,,,,,,,,,,,0,129,129,129,,,,,,,,,,,,,,,,,,,,,,,,,,,,,,,,,,,532.5915608999785,None,532.5915608999785,None,left,1,4.638138600043021,532.5915608999785,None,1,537.2590868999832,None,,,,,,,,,,,,,,,,,,,,,,,,,,,,,,,,,,,,,,,,,,,,,,,,,,,,,,,,,,,1.L,001,2021_Feb_23_2059,cal_abstract,2020.2.10,59.92089242838738,
,Fix2,stimuli/Dangerous/13.jpg,right,,,,,,,,,,,0,130,130,130,,,,,,,,,,,,,,,,,,,,,,,,,,,,,,,,,,,538.0571496000048,None,538.0571496000048,None,right,1,0.9726136999670416,538.0571496000048,None,1,539.0600612999988,None,,,,,,,,,,,,,,,,,,,,,,,,,,,,,,,,,,,,,,,,,,,,,,,,,,,,,,,,,,,1.L,001,2021_Feb_23_2059,cal_abstract,2020.2.10,59.92089242838738,
,Fix1,stimuli/School/49.jpg,left,,,,,,,,,,,0,131,131,131,,,,,,,,,,,,,,,,,,,,,,,,,,,,,,,,,,,539.8556911000051,None,539.8556911000051,None,left,1,1.584056599996984,539.8556911000051,None,1,541.4607797999633,None,,,,,,,,,,,,,,,,,,,,,,,,,,,,,,,,,,,,,,,,,,,,,,,,,,,,,,,,,,,1.L,001,2021_Feb_23_2059,cal_abstract,2020.2.10,59.92089242838738,
,Fix2,stimuli/Dangerous/2.jpg,right,,,,,,,,,,,0,132,132,132,,,,,,,,,,,,,,,,,,,,,,,,,,,,,,,,,,,542.2569665999617,None,542.2569665999617,None,right,1,0.9939652999746613,542.2569665999617,None,1,543.2786083999672,None,,,,,,,,,,,,,,,,,,,,,,,,,,,,,,,,,,,,,,,,,,,,,,,,,,,,,,,,,,,1.L,001,2021_Feb_23_2059,cal_abstract,2020.2.10,59.92089242838738,
,Cond,stimuli/Small/52.jpg,left,,,,,,,,,,,0,133,133,133,,,,,,,,,,,,,,,,,,,,,,,,,,,,,,,,,,,544.0592655999935,None,544.0592655999935,None,left,1,1.881424600025639,544.0592655999935,None,1,545.9644999000011,None,,,,,,,,,,,,,,,,,,,,,,,,,,,,,,,,,,,,,,,,,,,,,,,,,,,,,,,,,,,1.L,001,2021_Feb_23_2059,cal_abstract,2020.2.10,59.92089242838738,
,Cond,stimuli/Small/27.jpg,right,,,,,,,,,,,0,134,134,134,,,,,,,,,,,,,,,,,,,,,,,,,,,,,,,,,,,546.7598805999733,None,546.7598805999733,None,left,0,4.740896100003738,546.7598805999733,None,0,551.5330803999677,None,,,,,,,,,,,,,,,,,,,,,,,,,,,,,,,,,,,,,,,,,,,,,,,,,,,,,,,,,,,1.L,001,2021_Feb_23_2059,cal_abstract,2020.2.10,59.92089242838738,
,Fix1,stimuli/School/41.jpg,left,,,,,,,,,,,0,135,135,135,,,,,,,,,,,,,,,,,,,,,,,,,,,,,,,,,,,552.3249152000062,None,552.3249152000062,None,right,0,1.085660699987784,552.3249152000062,None,0,553.4358968999586,None,,,,,,,,,,,,,,,,,,,,,,,,,,,,,,,,,,,,,,,,,,,,,,,,,,,,,,,,,,,1.L,001,2021_Feb_23_2059,cal_abstract,2020.2.10,59.92089242838738,
,Fix1,stimuli/School/40.jpg,left,,,,,,,,,,,0,136,136,136,,,,,,,,,,,,,,,,,,,,,,,,,,,,,,,,,,,554.2284264999907,None,554.2284264999907,None,left,1,1.7821650999831036,554.2284264999907,None,1,556.053862300003,None,,,,,,,,,,,,,,,,,,,,,,,,,,,,,,,,,,,,,,,,,,,,,,,,,,,,,,,,,,,1.L,001,2021_Feb_23_2059,cal_abstract,2020.2.10,59.92089242838738,
,Fix2,stimuli/Dangerous/57.jpg,right,,,,,,,,,,,0,137,137,137,,,,,,,,,,,,,,,,,,,,,,,,,,,,,,,,,,,556.8408382000052,None,556.8408382000052,None,right,1,0.9799054000177421,556.8408382000052,None,1,557.8379138999735,None,,,,,,,,,,,,,,,,,,,,,,,,,,,,,,,,,,,,,,,,,,,,,,,,,,,,,,,,,,,1.L,001,2021_Feb_23_2059,cal_abstract,2020.2.10,59.92089242838738,
,Cond,stimuli/Small/21.jpg,left,,,,,,,,,,,0,138,138,138,,,,,,,,,,,,,,,,,,,,,,,,,,,,,,,,,,,558.649158199958,None,558.649158199958,None,left,1,2.1615897999727167,558.649158199958,None,1,560.8414087999845,None,,,,,,,,,,,,,,,,,,,,,,,,,,,,,,,,,,,,,,,,,,,,,,,,,,,,,,,,,,,1.L,001,2021_Feb_23_2059,cal_abstract,2020.2.10,59.92089242838738,
,Cond,stimuli/Small/48.jpg,right,,,,,,,,,,,0,139,139,139,,,,,,,,,,,,,,,,,,,,,,,,,,,,,,,,,,,561.6609889999963,None,561.6609889999963,None,left,0,2.1696569999912754,561.6609889999963,None,0,563.8767525000148,None,,,,,,,,,,,,,,,,,,,,,,,,,,,,,,,,,,,,,,,,,,,,,,,,,,,,,,,,,,,1.L,001,2021_Feb_23_2059,cal_abstract,2020.2.10,59.92089242838738,
,Fix2,stimuli/Dangerous/12.jpg,right,,,,,,,,,,,0,140,140,140,,,,,,,,,,,,,,,,,,,,,,,,,,,,,,,,,,,564.6602198999608,None,564.6602198999608,None,right,1,0.9003301000338979,564.6602198999608,None,1,565.5930003999965,None,,,,,,,,,,,,,,,,,,,,,,,,,,,,,,,,,,,,,,,,,,,,,,,,,,,,,,,,,,,1.L,001,2021_Feb_23_2059,cal_abstract,2020.2.10,59.92089242838738,
,Fix1,stimuli/School/2.jpg,left,,,,,,,,,,,0,141,141,141,,,,,,,,,,,,,,,,,,,,,,,,,,,,,,,,,,,566.3697959000128,None,566.3697959000128,None,left,1,5.160212800023146,566.3697959000128,None,1,571.5458783999784,None,,,,,,,,,,,,,,,,,,,,,,,,,,,,,,,,,,,,,,,,,,,,,,,,,,,,,,,,,,,1.L,001,2021_Feb_23_2059,cal_abstract,2020.2.10,59.92089242838738,
,Fix1,stimuli/School/16.jpg,left,,,,,,,,,,,0,142,142,142,,,,,,,,,,,,,,,,,,,,,,,,,,,,,,,,,,,572.3519386000116,None,572.3519386000116,None,left,1,1.5991543999989517,572.3519386000116,None,1,573.9818017999642,None,,,,,,,,,,,,,,,,,,,,,,,,,,,,,,,,,,,,,,,,,,,,,,,,,,,,,,,,,,,1.L,001,2021_Feb_23_2059,cal_abstract,2020.2.10,59.92089242838738,
,Fix2,stimuli/Dangerous/23.jpg,right,,,,,,,,,,,0,143,143,143,,,,,,,,,,,,,,,,,,,,,,,,,,,,,,,,,,,574.7834735999932,None,574.7834735999932,None,right,1,1.7469471000367776,574.7834735999932,None,1,576.5493237999617,None,,,,,,,,,,,,,,,,,,,,,,,,,,,,,,,,,,,,,,,,,,,,,,,,,,,,,,,,,,,1.L,001,2021_Feb_23_2059,cal_abstract,2020.2.10,59.92089242838738,
,Fix2,stimuli/Dangerous/5.jpg,right,,,,,,,,,,,0,144,144,144,,,,,,,,,,,,,,,,,,,,,,,,,,,,,,,,,,,577.3145708999946,None,577.3145708999946,None,right,1,0.9860021999920718,577.3145708999946,None,1,578.3210424999706,None,,,,,,,,,,,,,,,,,,,,,,,,,,,,,,,,,,,,,,,,,,,,,,,,,,,,,,,,,,,1.L,001,2021_Feb_23_2059,cal_abstract,2020.2.10,59.92089242838738,
,Fix2,stimuli/Dangerous/56.jpg,right,,,,,,,,,,,0,145,145,145,,,,,,,,,,,,,,,,,,,,,,,,,,,,,,,,,,,579.1118941999739,None,579.1118941999739,None,right,1,1.068577700003516,579.1118941999739,None,1,580.2039711999823,None,,,,,,,,,,,,,,,,,,,,,,,,,,,,,,,,,,,,,,,,,,,,,,,,,,,,,,,,,,,1.L,001,2021_Feb_23_2059,cal_abstract,2020.2.10,59.92089242838738,
,Cond,stimuli/Small/22.jpg,left,,,,,,,,,,,0,146,146,146,,,,,,,,,,,,,,,,,,,,,,,,,,,,,,,,,,,581.0262227999629,None,581.0262227999629,None,left,1,2.2344225000124425,581.0262227999629,None,1,583.289541599981,None,,,,,,,,,,,,,,,,,,,,,,,,,,,,,,,,,,,,,,,,,,,,,,,,,,,,,,,,,,,1.L,001,2021_Feb_23_2059,cal_abstract,2020.2.10,59.92089242838738,
,Fix1,stimuli/School/7.jpg,left,,,,,,,,,,,0,147,147,147,,,,,,,,,,,,,,,,,,,,,,,,,,,,,,,,,,,584.1068504999857,None,584.1068504999857,None,left,1,1.433939999958966,584.1068504999857,None,1,585.5594150999677,None,,,,,,,,,,,,,,,,,,,,,,,,,,,,,,,,,,,,,,,,,,,,,,,,,,,,,,,,,,,1.L,001,2021_Feb_23_2059,cal_abstract,2020.2.10,59.92089242838738,
,Fix1,stimuli/School/43.jpg,left,,,,,,,,,,,0,148,148,148,,,,,,,,,,,,,,,,,,,,,,,,,,,,,,,,,,,586.343462699966,None,586.343462699966,None,left,1,1.5585225999820977,586.343462699966,None,1,587.9280362999998,None,,,,,,,,,,,,,,,,,,,,,,,,,,,,,,,,,,,,,,,,,,,,,,,,,,,,,,,,,,,1.L,001,2021_Feb_23_2059,cal_abstract,2020.2.10,59.92089242838738,
,Fix2,stimuli/Dangerous/27.jpg,right,,,,,,,,,,,0,149,149,149,,,,,,,,,,,,,,,,,,,,,,,,,,,,,,,,,,,588.7216541999951,None,588.7216541999951,None,right,1,1.0404005000018515,588.7216541999951,None,1,589.793402899988,None,,,,,,,,,,,,,,,,,,,,,,,,,,,,,,,,,,,,,,,,,,,,,,,,,,,,,,,,,,,1.L,001,2021_Feb_23_2059,cal_abstract,2020.2.10,59.92089242838738,
,,,,,,,,,,,,,,,,,,,,,,,,,,,,,,,,,,,,,,,,,,,,,,,,,,,,,,,,,,,,,,,,590.5427696999977,None,c,6.078673099982552,590.5427696999977,None,,,,,,,,,,,,,,,,,,,,,,,,,,,,,,,,,,,,,,,,,,,,,,,,,,,,,1.L,001,2021_Feb_23_2059,cal_abstract,2020.2.10,59.92089242838738,
,,,,,,,,,,,,,,,,,,,,,,,,,,,,,,,,,,,,,,,,,,,,,,,,,,,,,,,,,,,,,,,,,,,,,,596.6485252999701,None,596.6485252999701,None,s,3.002918900048826,596.6485252999701,None,,,,,,,,,,,,,,,,,,,,,,,,,,,,,,,,,,,,,,,,,,,,,1.L,001,2021_Feb_23_2059,cal_abstract,2020.2.10,59.92089242838738,
,,,,Fix2,stimuli/Healthy/38.jpg,left,,,,,,,,,,,,0,0,0,0,,,,,,,,,,,,,,,,,,,,,,,,,,,,,,,,,,,,,,,,0,,,,,,,,,,,,,,,,,599.7459771999856,None,599.7459771999856,None,right,0,230.23976369999582,599.7459771999856,None,830.0257731999736,None,,,,,,,,,,,,,,,,,,,,,,,,,,,,,,,,,,1.L,001,2021_Feb_23_2059,cal_abstract,2020.2.10,59.92089242838738,
,,,,Fix1,stimuli/Old/36.jpg,right,,,,,,,,,,,,0,1,1,1,,,,,,,,,,,,,,,,,,,,,,,,,,,,,,,,,,,,,,,,0,,,,,,,,,,,,,,,,,830.8398438000004,None,830.8398438000004,None,left,0,1.334270799998194,830.8398438000004,None,832.1995663999696,None,,,,,,,,,,,,,,,,,,,,,,,,,,,,,,,,,,1.L,001,2021_Feb_23_2059,cal_abstract,2020.2.10,59.92089242838738,
,,,,Cond,stimuli/Wealth/56.jpg,left,,,,,,,,,,,,0,2,2,2,,,,,,,,,,,,,,,,,,,,,,,,,,,,,,,,,,,,,,,,1,,,,,,,,,,,,,,,,,833.0186947999755,None,833.0186947999755,None,left,1,1.1257280000136234,833.0186947999755,None,834.1767825999996,None,,,,,,,,,,,,,,,,,,,,,,,,,,,,,,,,,,1.L,001,2021_Feb_23_2059,cal_abstract,2020.2.10,59.92089242838738,
,,,,Fix1,stimuli/Old/58.jpg,right,,,,,,,,,,,,0,3,3,3,,,,,,,,,,,,,,,,,,,,,,,,,,,,,,,,,,,,,,,,0,,,,,,,,,,,,,,,,,834.9696798999794,None,834.9696798999794,None,left,0,0.7244343000347726,834.9696798999794,None,835.7324290999677,None,,,,,,,,,,,,,,,,,,,,,,,,,,,,,,,,,,1.L,001,2021_Feb_23_2059,cal_abstract,2020.2.10,59.92089242838738,
,,,,Fix2,stimuli/Healthy/67.jpg,left,,,,,,,,,,,,0,4,4,4,,,,,,,,,,,,,,,,,,,,,,,,,,,,,,,,,,,,,,,,1,,,,,,,,,,,,,,,,,836.5016420999891,None,836.5016420999891,None,left,1,0.8425815000082366,836.5016420999891,None,837.380223599961,None,,,,,,,,,,,,,,,,,,,,,,,,,,,,,,,,,,1.L,001,2021_Feb_23_2059,cal_abstract,2020.2.10,59.92089242838738,
,,,,Fix1,stimuli/Old/40.jpg,right,,,,,,,,,,,,0,5,5,5,,,,,,,,,,,,,,,,,,,,,,,,,,,,,,,,,,,,,,,,1,,,,,,,,,,,,,,,,,838.1731417999836,None,838.1731417999836,None,right,1,0.7611729999771342,838.1731417999836,None,838.9659167999635,None,,,,,,,,,,,,,,,,,,,,,,,,,,,,,,,,,,1.L,001,2021_Feb_23_2059,cal_abstract,2020.2.10,59.92089242838738,
,,,,Fix1,stimuli/Old/55.jpg,right,,,,,,,,,,,,0,6,6,6,,,,,,,,,,,,,,,,,,,,,,,,,,,,,,,,,,,,,,,,1,,,,,,,,,,,,,,,,,839.791861900012,None,839.791861900012,None,right,1,7.7419148000190035,839.791861900012,None,847.5524455999839,None,,,,,,,,,,,,,,,,,,,,,,,,,,,,,,,,,,1.L,001,2021_Feb_23_2059,cal_abstract,2020.2.10,59.92089242838738,
,,,,Fix2,stimuli/Healthy/37.jpg,left,,,,,,,,,,,,0,7,7,7,,,,,,,,,,,,,,,,,,,,,,,,,,,,,,,,,,,,,,,,1,,,,,,,,,,,,,,,,,848.3350018999772,None,848.3350018999772,None,left,1,0.9393187999958172,848.3350018999772,None,849.3062278999714,None,,,,,,,,,,,,,,,,,,,,,,,,,,,,,,,,,,1.L,001,2021_Feb_23_2059,cal_abstract,2020.2.10,59.92089242838738,
,,,,Fix2,stimuli/Healthy/13.jpg,left,,,,,,,,,,,,0,8,8,8,,,,,,,,,,,,,,,,,,,,,,,,,,,,,,,,,,,,,,,,1,,,,,,,,,,,,,,,,,850.103599199967,None,850.103599199967,None,left,1,0.9803492999635637,850.103599199967,None,851.1067033999716,None,,,,,,,,,,,,,,,,,,,,,,,,,,,,,,,,,,1.L,001,2021_Feb_23_2059,cal_abstract,2020.2.10,59.92089242838738,
,,,,Fix2,stimuli/Healthy/10.jpg,left,,,,,,,,,,,,0,9,9,9,,,,,,,,,,,,,,,,,,,,,,,,,,,,,,,,,,,,,,,,1,,,,,,,,,,,,,,,,,851.9221971000079,None,851.9221971000079,None,left,1,1.1420968000311404,851.9221971000079,None,853.0924820000073,None,,,,,,,,,,,,,,,,,,,,,,,,,,,,,,,,,,1.L,001,2021_Feb_23_2059,cal_abstract,2020.2.10,59.92089242838738,
,,,,Cond,stimuli/Wealth/5.jpg,right,,,,,,,,,,,,0,10,10,10,,,,,,,,,,,,,,,,,,,,,,,,,,,,,,,,,,,,,,,,0,,,,,,,,,,,,,,,,,853.9015608999762,None,853.9015608999762,None,left,0,1.1927334999782033,853.9015608999762,None,855.1412269999855,None,,,,,,,,,,,,,,,,,,,,,,,,,,,,,,,,,,1.L,001,2021_Feb_23_2059,cal_abstract,2020.2.10,59.92089242838738,
,,,,Fix2,stimuli/Healthy/1.jpg,left,,,,,,,,,,,,0,11,11,11,,,,,,,,,,,,,,,,,,,,,,,,,,,,,,,,,,,,,,,,1,,,,,,,,,,,,,,,,,855.918165399984,None,855.918165399984,None,left,1,2.4461878000292927,855.918165399984,None,858.4119542000117,None,,,,,,,,,,,,,,,,,,,,,,,,,,,,,,,,,,1.L,001,2021_Feb_23_2059,cal_abstract,2020.2.10,59.92089242838738,
,,,,Fix1,stimuli/Old/20.jpg,right,,,,,,,,,,,,0,12,12,12,,,,,,,,,,,,,,,,,,,,,,,,,,,,,,,,,,,,,,,,1,,,,,,,,,,,,,,,,,859.2047998000053,None,859.2047998000053,None,right,1,0.7793643000186421,859.2047998000053,None,860.0139574999921,None,,,,,,,,,,,,,,,,,,,,,,,,,,,,,,,,,,1.L,001,2021_Feb_23_2059,cal_abstract,2020.2.10,59.92089242838738,
,,,,Fix2,stimuli/Healthy/4.jpg,left,,,,,,,,,,,,0,13,13,13,,,,,,,,,,,,,,,,,,,,,,,,,,,,,,,,,,,,,,,,1,,,,,,,,,,,,,,,,,860.8071360999602,None,860.8071360999602,None,left,1,1.5763334999792278,860.8071360999602,None,862.4002567999996,None,,,,,,,,,,,,,,,,,,,,,,,,,,,,,,,,,,1.L,001,2021_Feb_23_2059,cal_abstract,2020.2.10,59.92089242838738,
,,,,Cond,stimuli/Wealth/41.jpg,right,,,,,,,,,,,,0,14,14,14,,,,,,,,,,,,,,,,,,,,,,,,,,,,,,,,,,,,,,,,1,,,,,,,,,,,,,,,,,863.2350143999793,None,863.2350143999793,None,right,1,0.7894202000461519,863.2350143999793,None,864.0497708999901,None,,,,,,,,,,,,,,,,,,,,,,,,,,,,,,,,,,1.L,001,2021_Feb_23_2059,cal_abstract,2020.2.10,59.92089242838738,
,,,,Cond,stimuli/Wealth/57.jpg,left,,,,,,,,,,,,0,15,15,15,,,,,,,,,,,,,,,,,,,,,,,,,,,,,,,,,,,,,,,,1,,,,,,,,,,,,,,,,,864.8654676000006,None,864.8654676000006,None,left,1,3.258656100020744,864.8654676000006,None,868.1522617999581,None,,,,,,,,,,,,,,,,,,,,,,,,,,,,,,,,,,1.L,001,2021_Feb_23_2059,cal_abstract,2020.2.10,59.92089242838738,
,,,,Fix2,stimuli/Healthy/58.jpg,left,,,,,,,,,,,,0,16,16,16,,,,,,,,,,,,,,,,,,,,,,,,,,,,,,,,,,,,,,,,1,,,,,,,,,,,,,,,,,868.9521738999756,None,868.9521738999756,None,left,1,34.54802060005022,868.9521738999756,None,903.525328699965,None,,,,,,,,,,,,,,,,,,,,,,,,,,,,,,,,,,1.L,001,2021_Feb_23_2059,cal_abstract,2020.2.10,59.92089242838738,
,,,,Fix1,stimuli/Old/49.jpg,right,,,,,,,,,,,,0,17,17,17,,,,,,,,,,,,,,,,,,,,,,,,,,,,,,,,,,,,,,,,1,,,,,,,,,,,,,,,,,904.3368454999872,None,904.3368454999872,None,right,1,2.282132000022102,904.3368454999872,None,906.6460978999967,None,,,,,,,,,,,,,,,,,,,,,,,,,,,,,,,,,,1.L,001,2021_Feb_23_2059,cal_abstract,2020.2.10,59.92089242838738,
,,,,Fix1,stimuli/Old/29.jpg,right,,,,,,,,,,,,0,18,18,18,,,,,,,,,,,,,,,,,,,,,,,,,,,,,,,,,,,,,,,,1,,,,,,,,,,,,,,,,,907.469462500012,None,907.469462500012,None,right,1,2.5895930000115186,907.469462500012,None,910.0819970999728,None,,,,,,,,,,,,,,,,,,,,,,,,,,,,,,,,,,1.L,001,2021_Feb_23_2059,cal_abstract,2020.2.10,59.92089242838738,
,,,,Cond,stimuli/Wealth/26.jpg,left,,,,,,,,,,,,0,19,19,19,,,,,,,,,,,,,,,,,,,,,,,,,,,,,,,,,,,,,,,,1,,,,,,,,,,,,,,,,,910.9040583999595,None,910.9040583999595,None,left,1,1.364895600010641,910.9040583999595,None,912.2984626999823,None,,,,,,,,,,,,,,,,,,,,,,,,,,,,,,,,,,1.L,001,2021_Feb_23_2059,cal_abstract,2020.2.10,59.92089242838738,
,,,,Fix1,stimuli/Old/37.jpg,right,,,,,,,,,,,,0,20,20,20,,,,,,,,,,,,,,,,,,,,,,,,,,,,,,,,,,,,,,,,1,,,,,,,,,,,,,,,,,913.0925905999611,None,913.0925905999611,None,right,1,0.9659642000333406,913.0925905999611,None,914.0834541000077,None,,,,,,,,,,,,,,,,,,,,,,,,,,,,,,,,,,1.L,001,2021_Feb_23_2059,cal_abstract,2020.2.10,59.92089242838738,
,,,,Fix2,stimuli/Healthy/42.jpg,left,,,,,,,,,,,,0,21,21,21,,,,,,,,,,,,,,,,,,,,,,,,,,,,,,,,,,,,,,,,0,,,,,,,,,,,,,,,,,914.9460590999806,None,914.9460590999806,None,right,0,3.412474900018424,914.9460590999806,None,918.4002074999735,None,,,,,,,,,,,,,,,,,,,,,,,,,,,,,,,,,,1.L,001,2021_Feb_23_2059,cal_abstract,2020.2.10,59.92089242838738,
,,,,Fix2,stimuli/Healthy/55.jpg,left,,,,,,,,,,,,0,22,22,22,,,,,,,,,,,,,,,,,,,,,,,,,,,,,,,,,,,,,,,,0,,,,,,,,,,,,,,,,,919.1899557000143,None,919.1899557000143,None,right,0,3.828634100034833,919.1899557000143,None,923.0414457999868,None,,,,,,,,,,,,,,,,,,,,,,,,,,,,,,,,,,1.L,001,2021_Feb_23_2059,cal_abstract,2020.2.10,59.92089242838738,
,,,,Fix1,stimuli/Old/15.jpg,right,,,,,,,,,,,,0,23,23,23,,,,,,,,,,,,,,,,,,,,,,,,,,,,,,,,,,,,,,,,1,,,,,,,,,,,,,,,,,923.8423204999999,None,923.8423204999999,None,right,1,1.685897599963937,923.8423204999999,None,925.5614577999804,None,,,,,,,,,,,,,,,,,,,,,,,,,,,,,,,,,,1.L,001,2021_Feb_23_2059,cal_abstract,2020.2.10,59.92089242838738,
,,,,Fix2,stimuli/Healthy/8.jpg,left,,,,,,,,,,,,0,24,24,24,,,,,,,,,,,,,,,,,,,,,,,,,,,,,,,,,,,,,,,,1,,,,,,,,,,,,,,,,,926.3747626999975,None,926.3747626999975,None,left,1,3.7139703000430018,926.3747626999975,None,930.1106336999801,None,,,,,,,,,,,,,,,,,,,,,,,,,,,,,,,,,,1.L,001,2021_Feb_23_2059,cal_abstract,2020.2.10,59.92089242838738,
,,,,Cond,stimuli/Wealth/17.jpg,right,,,,,,,,,,,,0,25,25,25,,,,,,,,,,,,,,,,,,,,,,,,,,,,,,,,,,,,,,,,1,,,,,,,,,,,,,,,,,930.9019641999621,None,930.9019641999621,None,right,1,3.0570232000318356,930.9019641999621,None,933.9808105999837,None,,,,,,,,,,,,,,,,,,,,,,,,,,,,,,,,,,1.L,001,2021_Feb_23_2059,cal_abstract,2020.2.10,59.92089242838738,
,,,,Cond,stimuli/Wealth/27.jpg,left,,,,,,,,,,,,0,26,26,26,,,,,,,,,,,,,,,,,,,,,,,,,,,,,,,,,,,,,,,,0,,,,,,,,,,,,,,,,,934.7925039000111,None,934.7925039000111,None,right,0,3.256734199996572,934.7925039000111,None,938.0821203999803,None,,,,,,,,,,,,,,,,,,,,,,,,,,,,,,,,,,1.L,001,2021_Feb_23_2059,cal_abstract,2020.2.10,59.92089242838738,
,,,,Cond,stimuli/Wealth/0.jpg,right,,,,,,,,,,,,0,27,27,27,,,,,,,,,,,,,,,,,,,,,,,,,,,,,,,,,,,,,,,,0,,,,,,,,,,,,,,,,,938.8602217999869,None,938.8602217999869,None,left,0,2.5585365999722853,938.8602217999869,None,941.4359275999595,None,,,,,,,,,,,,,,,,,,,,,,,,,,,,,,,,,,1.L,001,2021_Feb_23_2059,cal_abstract,2020.2.10,59.92089242838738,
,,,,Fix2,stimuli/Healthy/5.jpg,left,,,,,,,,,,,,0,28,28,28,,,,,,,,,,,,,,,,,,,,,,,,,,,,,,,,,,,,,,,,1,,,,,,,,,,,,,,,,,942.240952299966,None,942.240952299966,None,left,1,3.838964099995792,942.240952299966,None,946.1206210000091,None,,,,,,,,,,,,,,,,,,,,,,,,,,,,,,,,,,1.L,001,2021_Feb_23_2059,cal_abstract,2020.2.10,59.92089242838738,
,,,,Fix2,stimuli/Healthy/29.jpg,left,,,,,,,,,,,,0,29,29,29,,,,,,,,,,,,,,,,,,,,,,,,,,,,,,,,,,,,,,,,1,,,,,,,,,,,,,,,,,946.9121375000104,None,946.9121375000104,None,left,1,0.8073019000003114,946.9121375000104,None,947.739623899979,None,,,,,,,,,,,,,,,,,,,,,,,,,,,,,,,,,,1.L,001,2021_Feb_23_2059,cal_abstract,2020.2.10,59.92089242838738,
,,,,Cond,stimuli/Wealth/53.jpg,right,,,,,,,,,,,,0,30,30,30,,,,,,,,,,,,,,,,,,,,,,,,,,,,,,,,,,,,,,,,1,,,,,,,,,,,,,,,,,948.5314603999723,None,948.5314603999723,None,right,1,2.1782051000045612,948.5314603999723,None,950.7420979999588,None,,,,,,,,,,,,,,,,,,,,,,,,,,,,,,,,,,1.L,001,2021_Feb_23_2059,cal_abstract,2020.2.10,59.92089242838738,
,,,,Fix1,stimuli/Old/2.jpg,right,,,,,,,,,,,,0,31,31,31,,,,,,,,,,,,,,,,,,,,,,,,,,,,,,,,,,,,,,,,1,,,,,,,,,,,,,,,,,951.5289884000085,None,951.5289884000085,None,right,1,13.130854899995029,951.5289884000085,None,964.6858920999803,None,,,,,,,,,,,,,,,,,,,,,,,,,,,,,,,,,,1.L,001,2021_Feb_23_2059,cal_abstract,2020.2.10,59.92089242838738,
,,,,Fix2,stimuli/Healthy/7.jpg,left,,,,,,,,,,,,0,32,32,32,,,,,,,,,,,,,,,,,,,,,,,,,,,,,,,,,,,,,,,,1,,,,,,,,,,,,,,,,,965.4887878000154,None,965.4887878000154,None,left,1,2.6409174000145867,965.4887878000154,None,968.1554732999648,None,,,,,,,,,,,,,,,,,,,,,,,,,,,,,,,,,,1.L,001,2021_Feb_23_2059,cal_abstract,2020.2.10,59.92089242838738,
,,,,Fix1,stimuli/Old/7.jpg,right,,,,,,,,,,,,0,33,33,33,,,,,,,,,,,,,,,,,,,,,,,,,,,,,,,,,,,,,,,,1,,,,,,,,,,,,,,,,,968.9551068000146,None,968.9551068000146,None,right,1,0.7451377999968827,968.9551068000146,None,969.7221605000086,None,,,,,,,,,,,,,,,,,,,,,,,,,,,,,,,,,,1.L,001,2021_Feb_23_2059,cal_abstract,2020.2.10,59.92089242838738,
,,,,Cond,stimuli/Wealth/10.jpg,left,,,,,,,,,,,,0,34,34,34,,,,,,,,,,,,,,,,,,,,,,,,,,,,,,,,,,,,,,,,1,,,,,,,,,,,,,,,,,970.5038268999779,None,970.5038268999779,None,left,1,2.555974500020966,970.5038268999779,None,973.0899987000157,None,,,,,,,,,,,,,,,,,,,,,,,,,,,,,,,,,,1.L,001,2021_Feb_23_2059,cal_abstract,2020.2.10,59.92089242838738,
,,,,Fix2,stimuli/Healthy/68.jpg,left,,,,,,,,,,,,0,35,35,35,,,,,,,,,,,,,,,,,,,,,,,,,,,,,,,,,,,,,,,,1,,,,,,,,,,,,,,,,,973.8751623000135,None,973.8751623000135,None,left,1,1.0643163000349887,973.8751623000135,None,974.9586827000021,None,,,,,,,,,,,,,,,,,,,,,,,,,,,,,,,,,,1.L,001,2021_Feb_23_2059,cal_abstract,2020.2.10,59.92089242838738,
,,,,Cond,stimuli/Wealth/24.jpg,right,,,,,,,,,,,,0,36,36,36,,,,,,,,,,,,,,,,,,,,,,,,,,,,,,,,,,,,,,,,0,,,,,,,,,,,,,,,,,975.7598750999896,None,975.7598750999896,None,left,0,0.8506361999898218,975.7598750999896,None,976.6577763999812,None,,,,,,,,,,,,,,,,,,,,,,,,,,,,,,,,,,1.L,001,2021_Feb_23_2059,cal_abstract,2020.2.10,59.92089242838738,
,,,,Cond,stimuli/Wealth/12.jpg,left,,,,,,,,,,,,0,37,37,37,,,,,,,,,,,,,,,,,,,,,,,,,,,,,,,,,,,,,,,,1,,,,,,,,,,,,,,,,,977.4637909000157,None,977.4637909000157,None,left,1,2.306112900027074,977.4637909000157,None,979.8120680999709,None,,,,,,,,,,,,,,,,,,,,,,,,,,,,,,,,,,1.L,001,2021_Feb_23_2059,cal_abstract,2020.2.10,59.92089242838738,
,,,,Fix2,stimuli/Healthy/20.jpg,left,,,,,,,,,,,,0,38,38,38,,,,,,,,,,,,,,,,,,,,,,,,,,,,,,,,,,,,,,,,1,,,,,,,,,,,,,,,,,980.5920004000072,None,980.5920004000072,None,left,1,2.177894499967806,980.5920004000072,None,982.7976829999825,None,,,,,,,,,,,,,,,,,,,,,,,,,,,,,,,,,,1.L,001,2021_Feb_23_2059,cal_abstract,2020.2.10,59.92089242838738,
,,,,Fix2,stimuli/Healthy/44.jpg,left,,,,,,,,,,,,0,39,39,39,,,,,,,,,,,,,,,,,,,,,,,,,,,,,,,,,,,,,,,,1,,,,,,,,,,,,,,,,,983.5976195000112,None,983.5976195000112,None,left,1,14.763295500015374,983.5976195000112,None,998.3911721999757,None,,,,,,,,,,,,,,,,,,,,,,,,,,,,,,,,,,1.L,001,2021_Feb_23_2059,cal_abstract,2020.2.10,59.92089242838738,
,,,,Fix2,stimuli/Healthy/27.jpg,left,,,,,,,,,,,,0,40,40,40,,,,,,,,,,,,,,,,,,,,,,,,,,,,,,,,,,,,,,,,1,,,,,,,,,,,,,,,,,999.2053723999998,None,999.2053723999998,None,left,1,0.9054498000186868,999.2053723999998,None,1000.1416171999881,None,,,,,,,,,,,,,,,,,,,,,,,,,,,,,,,,,,1.L,001,2021_Feb_23_2059,cal_abstract,2020.2.10,59.92089242838738,
,,,,Fix2,stimuli/Healthy/59.jpg,left,,,,,,,,,,,,0,41,41,41,,,,,,,,,,,,,,,,,,,,,,,,,,,,,,,,,,,,,,,,1,,,,,,,,,,,,,,,,,1000.9649170999764,None,1000.9649170999764,None,left,1,2.995157499972265,1000.9649170999764,None,1003.9768758999999,None,,,,,,,,,,,,,,,,,,,,,,,,,,,,,,,,,,1.L,001,2021_Feb_23_2059,cal_abstract,2020.2.10,59.92089242838738,
,,,,Fix1,stimuli/Old/46.jpg,right,,,,,,,,,,,,0,42,42,42,,,,,,,,,,,,,,,,,,,,,,,,,,,,,,,,,,,,,,,,0,,,,,,,,,,,,,,,,,1004.7564459000132,None,1004.7564459000132,None,left,0,1.9240622000070289,1004.7564459000132,None,1006.7170836000005,None,,,,,,,,,,,,,,,,,,,,,,,,,,,,,,,,,,1.L,001,2021_Feb_23_2059,cal_abstract,2020.2.10,59.92089242838738,
,,,,Fix2,stimuli/Healthy/39.jpg,left,,,,,,,,,,,,0,43,43,43,,,,,,,,,,,,,,,,,,,,,,,,,,,,,,,,,,,,,,,,0,,,,,,,,,,,,,,,,,1007.4928803999792,None,1007.4928803999792,None,right,0,1.1196907000266947,1007.4928803999792,None,1008.633241500007,None,,,,,,,,,,,,,,,,,,,,,,,,,,,,,,,,,,1.L,001,2021_Feb_23_2059,cal_abstract,2020.2.10,59.92089242838738,
,,,,Fix1,stimuli/Old/38.jpg,right,,,,,,,,,,,,0,44,44,44,,,,,,,,,,,,,,,,,,,,,,,,,,,,,,,,,,,,,,,,1,,,,,,,,,,,,,,,,,1009.4287934000022,None,1009.4287934000022,None,right,1,1.4118635000195354,1009.4287934000022,None,1010.8795742999646,None,,,,,,,,,,,,,,,,,,,,,,,,,,,,,,,,,,1.L,001,2021_Feb_23_2059,cal_abstract,2020.2.10,59.92089242838738,
,,,,Fix2,stimuli/Healthy/66.jpg,left,,,,,,,,,,,,0,45,45,45,,,,,,,,,,,,,,,,,,,,,,,,,,,,,,,,,,,,,,,,1,,,,,,,,,,,,,,,,,1011.6692675999948,None,1011.6692675999948,None,left,1,1.2816490000113845,1011.6692675999948,None,1012.9681677999906,None,,,,,,,,,,,,,,,,,,,,,,,,,,,,,,,,,,1.L,001,2021_Feb_23_2059,cal_abstract,2020.2.10,59.92089242838738,
,,,,Fix1,stimuli/Old/17.jpg,right,,,,,,,,,,,,0,46,46,46,,,,,,,,,,,,,,,,,,,,,,,,,,,,,,,,,,,,,,,,1,,,,,,,,,,,,,,,,,1013.7828042999608,None,1013.7828042999608,None,right,1,0.7782204999821261,1013.7828042999608,None,1014.5881557000102,None,,,,,,,,,,,,,,,,,,,,,,,,,,,,,,,,,,1.L,001,2021_Feb_23_2059,cal_abstract,2020.2.10,59.92089242838738,
,,,,Fix1,stimuli/Old/14.jpg,right,,,,,,,,,,,,0,47,47,47,,,,,,,,,,,,,,,,,,,,,,,,,,,,,,,,,,,,,,,,1,,,,,,,,,,,,,,,,,1015.4439809999894,None,1015.4439809999894,None,right,1,0.9170942000346258,1015.4439809999894,None,1016.3873236000072,None,,,,,,,,,,,,,,,,,,,,,,,,,,,,,,,,,,1.L,001,2021_Feb_23_2059,cal_abstract,2020.2.10,59.92089242838738,
,,,,Cond,stimuli/Wealth/43.jpg,left,,,,,,,,,,,,0,48,48,48,,,,,,,,,,,,,,,,,,,,,,,,,,,,,,,,,,,,,,,,1,,,,,,,,,,,,,,,,,1017.1804668999976,None,1017.1804668999976,None,left,1,0.8800607000011951,1017.1804668999976,None,1018.0883265999728,None,,,,,,,,,,,,,,,,,,,,,,,,,,,,,,,,,,1.L,001,2021_Feb_23_2059,cal_abstract,2020.2.10,59.92089242838738,
,,,,Fix2,stimuli/Healthy/41.jpg,left,,,,,,,,,,,,0,49,49,49,,,,,,,,,,,,,,,,,,,,,,,,,,,,,,,,,,,,,,,,0,,,,,,,,,,,,,,,,,1018.8716703999671,None,1018.8716703999671,None,right,0,4.248944099992514,1018.8716703999671,None,1023.1582945999689,None,,,,,,,,,,,,,,,,,,,,,,,,,,,,,,,,,,1.L,001,2021_Feb_23_2059,cal_abstract,2020.2.10,59.92089242838738,
,,,,Cond,stimuli/Wealth/40.jpg,right,,,,,,,,,,,,0,50,50,50,,,,,,,,,,,,,,,,,,,,,,,,,,,,,,,,,,,,,,,,1,,,,,,,,,,,,,,,,,1023.937660800002,None,1023.937660800002,None,right,1,1.0733077000477351,1023.937660800002,None,1025.062126600009,None,,,,,,,,,,,,,,,,,,,,,,,,,,,,,,,,,,1.L,001,2021_Feb_23_2059,cal_abstract,2020.2.10,59.92089242838738,
,,,,Fix1,stimuli/Old/43.jpg,right,,,,,,,,,,,,0,51,51,51,,,,,,,,,,,,,,,,,,,,,,,,,,,,,,,,,,,,,,,,1,,,,,,,,,,,,,,,,,1025.8409387000138,None,1025.8409387000138,None,right,1,4.070761199982371,1025.8409387000138,None,1029.9318768999656,None,,,,,,,,,,,,,,,,,,,,,,,,,,,,,,,,,,1.L,001,2021_Feb_23_2059,cal_abstract,2020.2.10,59.92089242838738,
,,,,Cond,stimuli/Wealth/44.jpg,left,,,,,,,,,,,,0,52,52,52,,,,,,,,,,,,,,,,,,,,,,,,,,,,,,,,,,,,,,,,0,,,,,,,,,,,,,,,,,1030.7436740999692,None,1030.7436740999692,None,right,0,0.8178240000270307,1030.7436740999692,None,1031.594566899992,None,,,,,,,,,,,,,,,,,,,,,,,,,,,,,,,,,,1.L,001,2021_Feb_23_2059,cal_abstract,2020.2.10,59.92089242838738,
,,,,Fix1,stimuli/Old/10.jpg,right,,,,,,,,,,,,0,53,53,53,,,,,,,,,,,,,,,,,,,,,,,,,,,,,,,,,,,,,,,,1,,,,,,,,,,,,,,,,,1032.3851681000087,None,1032.3851681000087,None,right,1,1.5666172999772243,1032.3851681000087,None,1033.998459799972,None,,,,,,,,,,,,,,,,,,,,,,,,,,,,,,,,,,1.L,001,2021_Feb_23_2059,cal_abstract,2020.2.10,59.92089242838738,
,,,,Fix1,stimuli/Old/3.jpg,right,,,,,,,,,,,,0,54,54,54,,,,,,,,,,,,,,,,,,,,,,,,,,,,,,,,,,,,,,,,0,,,,,,,,,,,,,,,,,1034.8120011999854,None,1034.8120011999854,None,left,0,5.920029499975499,1034.8120011999854,None,1040.7694869000115,None,,,,,,,,,,,,,,,,,,,,,,,,,,,,,,,,,,1.L,001,2021_Feb_23_2059,cal_abstract,2020.2.10,59.92089242838738,
,,,,Cond,stimuli/Wealth/13.jpg,left,,,,,,,,,,,,0,55,55,55,,,,,,,,,,,,,,,,,,,,,,,,,,,,,,,,,,,,,,,,1,,,,,,,,,,,,,,,,,1041.5744390999898,None,1041.5744390999898,None,left,1,1.9173943999921903,1041.5744390999898,None,1043.5352510999655,None,,,,,,,,,,,,,,,,,,,,,,,,,,,,,,,,,,1.L,001,2021_Feb_23_2059,cal_abstract,2020.2.10,59.92089242838738,
,,,,Cond,stimuli/Wealth/14.jpg,right,,,,,,,,,,,,0,56,56,56,,,,,,,,,,,,,,,,,,,,,,,,,,,,,,,,,,,,,,,,0,,,,,,,,,,,,,,,,,1044.3432412999682,None,1044.3432412999682,None,left,0,1.5986506000044756,1044.3432412999682,None,1045.987808100006,None,,,,,,,,,,,,,,,,,,,,,,,,,,,,,,,,,,1.L,001,2021_Feb_23_2059,cal_abstract,2020.2.10,59.92089242838738,
,,,,Fix2,stimuli/Healthy/65.jpg,left,,,,,,,,,,,,0,57,57,57,,,,,,,,,,,,,,,,,,,,,,,,,,,,,,,,,,,,,,,,1,,,,,,,,,,,,,,,,,1046.781707999995,None,1046.781707999995,None,left,1,17.85021380003309,1046.781707999995,None,1064.670832599979,None,,,,,,,,,,,,,,,,,,,,,,,,,,,,,,,,,,1.L,001,2021_Feb_23_2059,cal_abstract,2020.2.10,59.92089242838738,
,,,,Cond,stimuli/Wealth/45.jpg,right,,,,,,,,,,,,0,58,58,58,,,,,,,,,,,,,,,,,,,,,,,,,,,,,,,,,,,,,,,,1,,,,,,,,,,,,,,,,,1065.4558801999665,None,1065.4558801999665,None,right,1,1.2956332999747247,1065.4558801999665,None,1066.7719429999706,None,,,,,,,,,,,,,,,,,,,,,,,,,,,,,,,,,,1.L,001,2021_Feb_23_2059,cal_abstract,2020.2.10,59.92089242838738,
,,,,Cond,stimuli/Wealth/31.jpg,left,,,,,,,,,,,,0,59,59,59,,,,,,,,,,,,,,,,,,,,,,,,,,,,,,,,,,,,,,,,0,,,,,,,,,,,,,,,,,1067.5730257999967,None,1067.5730257999967,None,right,0,11.210004099993967,1067.5730257999967,None,1078.8346328999614,None,,,,,,,,,,,,,,,,,,,,,,,,,,,,,,,,,,1.L,001,2021_Feb_23_2059,cal_abstract,2020.2.10,59.92089242838738,
,,,,Cond,stimuli/Wealth/46.jpg,right,,,,,,,,,,,,0,60,60,60,,,,,,,,,,,,,,,,,,,,,,,,,,,,,,,,,,,,,,,,1,,,,,,,,,,,,,,,,,1079.6261855000048,None,1079.6261855000048,None,right,1,7.636635700007901,1079.6261855000048,None,1087.3040413999697,None,,,,,,,,,,,,,,,,,,,,,,,,,,,,,,,,,,1.L,001,2021_Feb_23_2059,cal_abstract,2020.2.10,59.92089242838738,
,,,,Cond,stimuli/Wealth/52.jpg,left,,,,,,,,,,,,0,61,61,61,,,,,,,,,,,,,,,,,,,,,,,,,,,,,,,,,,,,,,,,0,,,,,,,,,,,,,,,,,1088.108943499974,None,1088.108943499974,None,right,0,2.6339664999977686,1088.108943499974,None,1090.7912960000103,None,,,,,,,,,,,,,,,,,,,,,,,,,,,,,,,,,,1.L,001,2021_Feb_23_2059,cal_abstract,2020.2.10,59.92089242838738,
,,,,Fix2,stimuli/Healthy/51.jpg,left,,,,,,,,,,,,0,62,62,62,,,,,,,,,,,,,,,,,,,,,,,,,,,,,,,,,,,,,,,,1,,,,,,,,,,,,,,,,,1091.5950426000054,None,1091.5950426000054,None,left,1,1.0679337999899872,1091.5950426000054,None,1092.707324899966,None,,,,,,,,,,,,,,,,,,,,,,,,,,,,,,,,,,1.L,001,2021_Feb_23_2059,cal_abstract,2020.2.10,59.92089242838738,
,,,,Fix2,stimuli/Healthy/32.jpg,left,,,,,,,,,,,,0,63,63,63,,,,,,,,,,,,,,,,,,,,,,,,,,,,,,,,,,,,,,,,1,,,,,,,,,,,,,,,,,1093.4936900999746,None,1093.4936900999746,None,left,1,1.2090680000255816,1093.4936900999746,None,1094.7224124000059,None,,,,,,,,,,,,,,,,,,,,,,,,,,,,,,,,,,1.L,001,2021_Feb_23_2059,cal_abstract,2020.2.10,59.92089242838738,
,,,,Fix2,stimuli/Healthy/45.jpg,left,,,,,,,,,,,,0,64,64,64,,,,,,,,,,,,,,,,,,,,,,,,,,,,,,,,,,,,,,,,1,,,,,,,,,,,,,,,,,1095.5347437000019,None,1095.5347437000019,None,left,1,1.0480349999852479,1095.5347437000019,None,1096.611100899987,None,,,,,,,,,,,,,,,,,,,,,,,,,,,,,,,,,,1.L,001,2021_Feb_23_2059,cal_abstract,2020.2.10,59.92089242838738,
,,,,Cond,stimuli/Wealth/19.jpg,right,,,,,,,,,,,,0,65,65,65,,,,,,,,,,,,,,,,,,,,,,,,,,,,,,,,,,,,,,,,1,,,,,,,,,,,,,,,,,1097.4247320999857,None,1097.4247320999857,None,right,1,0.847979599959217,1097.4247320999857,None,1098.2930924000102,None,,,,,,,,,,,,,,,,,,,,,,,,,,,,,,,,,,1.L,001,2021_Feb_23_2059,cal_abstract,2020.2.10,59.92089242838738,
,,,,Fix1,stimuli/Old/8.jpg,right,,,,,,,,,,,,0,66,66,66,,,,,,,,,,,,,,,,,,,,,,,,,,,,,,,,,,,,,,,,1,,,,,,,,,,,,,,,,,1099.082874399959,None,1099.082874399959,None,right,1,1.5401900000288151,1099.082874399959,None,1100.6451567999902,None,,,,,,,,,,,,,,,,,,,,,,,,,,,,,,,,,,1.L,001,2021_Feb_23_2059,cal_abstract,2020.2.10,59.92089242838738,
,,,,Cond,stimuli/Wealth/22.jpg,left,,,,,,,,,,,,0,67,67,67,,,,,,,,,,,,,,,,,,,,,,,,,,,,,,,,,,,,,,,,1,,,,,,,,,,,,,,,,,1101.447258899978,None,1101.447258899978,None,left,1,1.7955292999977246,1101.447258899978,None,1103.2647618000046,None,,,,,,,,,,,,,,,,,,,,,,,,,,,,,,,,,,1.L,001,2021_Feb_23_2059,cal_abstract,2020.2.10,59.92089242838738,
,,,,Cond,stimuli/Wealth/11.jpg,right,,,,,,,,,,,,0,68,68,68,,,,,,,,,,,,,,,,,,,,,,,,,,,,,,,,,,,,,,,,1,,,,,,,,,,,,,,,,,1104.0596487000003,None,1104.0596487000003,None,right,1,3.693150000006426,1104.0596487000003,None,1107.7828235999914,None,,,,,,,,,,,,,,,,,,,,,,,,,,,,,,,,,,1.L,001,2021_Feb_23_2059,cal_abstract,2020.2.10,59.92089242838738,
,,,,Fix2,stimuli/Healthy/43.jpg,left,,,,,,,,,,,,0,69,69,69,,,,,,,,,,,,,,,,,,,,,,,,,,,,,,,,,,,,,,,,1,,,,,,,,,,,,,,,,,1108.5684975999757,None,1108.5684975999757,None,left,1,0.995296299981419,1108.5684975999757,None,1109.584685800015,None,,,,,,,,,,,,,,,,,,,,,,,,,,,,,,,,,,1.L,001,2021_Feb_23_2059,cal_abstract,2020.2.10,59.92089242838738,
,,,,Fix2,stimuli/Healthy/6.jpg,left,,,,,,,,,,,,0,70,70,70,,,,,,,,,,,,,,,,,,,,,,,,,,,,,,,,,,,,,,,,1,,,,,,,,,,,,,,,,,1110.4022488999763,None,1110.4022488999763,None,left,1,0.6304834000184201,1110.4022488999763,None,1111.0531728999922,None,,,,,,,,,,,,,,,,,,,,,,,,,,,,,,,,,,1.L,001,2021_Feb_23_2059,cal_abstract,2020.2.10,59.92089242838738,
,,,,Fix1,stimuli/Old/21.jpg,right,,,,,,,,,,,,0,71,71,71,,,,,,,,,,,,,,,,,,,,,,,,,,,,,,,,,,,,,,,,1,,,,,,,,,,,,,,,,,1111.8675106000155,None,1111.8675106000155,None,right,1,0.7662936999695376,1111.8675106000155,None,1112.6539567,None,,,,,,,,,,,,,,,,,,,,,,,,,,,,,,,,,,1.L,001,2021_Feb_23_2059,cal_abstract,2020.2.10,59.92089242838738,
,,,,Fix2,stimuli/Healthy/9.jpg,left,,,,,,,,,,,,0,72,72,72,,,,,,,,,,,,,,,,,,,,,,,,,,,,,,,,,,,,,,,,1,,,,,,,,,,,,,,,,,1113.4692901999806,None,1113.4692901999806,None,left,1,0.9847378000267781,1113.4692901999806,None,1114.4743720999686,None,,,,,,,,,,,,,,,,,,,,,,,,,,,,,,,,,,1.L,001,2021_Feb_23_2059,cal_abstract,2020.2.10,59.92089242838738,
,,,,Cond,stimuli/Wealth/51.jpg,right,,,,,,,,,,,,0,73,73,73,,,,,,,,,,,,,,,,,,,,,,,,,,,,,,,,,,,,,,,,0,,,,,,,,,,,,,,,,,1115.2683085000026,None,1115.2683085000026,None,left,0,5.855435299978126,1115.2683085000026,None,1121.1611993999686,None,,,,,,,,,,,,,,,,,,,,,,,,,,,,,,,,,,1.L,001,2021_Feb_23_2059,cal_abstract,2020.2.10,59.92089242838738,
,,,,Fix1,stimuli/Old/54.jpg,right,,,,,,,,,,,,0,74,74,74,,,,,,,,,,,,,,,,,,,,,,,,,,,,,,,,,,,,,,,,1,,,,,,,,,,,,,,,,,1121.9478246999788,None,1121.9478246999788,None,right,1,1.2162522000144236,1121.9478246999788,None,1123.2094974999782,None,,,,,,,,,,,,,,,,,,,,,,,,,,,,,,,,,,1.L,001,2021_Feb_23_2059,cal_abstract,2020.2.10,59.92089242838738,
,,,,Fix2,stimuli/Healthy/53.jpg,left,,,,,,,,,,,,0,75,75,75,,,,,,,,,,,,,,,,,,,,,,,,,,,,,,,,,,,,,,,,1,,,,,,,,,,,,,,,,,1123.9702943000011,None,1123.9702943000011,None,left,1,0.8036378000397235,1123.9702943000011,None,1124.7960187999997,None,,,,,,,,,,,,,,,,,,,,,,,,,,,,,,,,,,1.L,001,2021_Feb_23_2059,cal_abstract,2020.2.10,59.92089242838738,
,,,,Cond,stimuli/Wealth/49.jpg,right,,,,,,,,,,,,0,76,76,76,,,,,,,,,,,,,,,,,,,,,,,,,,,,,,,,,,,,,,,,1,,,,,,,,,,,,,,,,,1125.5923030999838,None,1125.5923030999838,None,right,1,2.1516611999832094,1125.5923030999838,None,1127.7647796999663,None,,,,,,,,,,,,,,,,,,,,,,,,,,,,,,,,,,1.L,001,2021_Feb_23_2059,cal_abstract,2020.2.10,59.92089242838738,
,,,,Fix1,stimuli/Old/0.jpg,right,,,,,,,,,,,,0,77,77,77,,,,,,,,,,,,,,,,,,,,,,,,,,,,,,,,,,,,,,,,1,,,,,,,,,,,,,,,,,1128.5596580000129,None,1128.5596580000129,None,right,1,2.3442790000117384,1128.5596580000129,None,1130.933293399983,None,,,,,,,,,,,,,,,,,,,,,,,,,,,,,,,,,,1.L,001,2021_Feb_23_2059,cal_abstract,2020.2.10,59.92089242838738,
,,,,Cond,stimuli/Wealth/28.jpg,left,,,,,,,,,,,,0,78,78,78,,,,,,,,,,,,,,,,,,,,,,,,,,,,,,,,,,,,,,,,1,,,,,,,,,,,,,,,,,1131.7292311000056,None,1131.7292311000056,None,left,1,3.374680000008084,1131.7292311000056,None,1135.1340172999771,None,,,,,,,,,,,,,,,,,,,,,,,,,,,,,,,,,,1.L,001,2021_Feb_23_2059,cal_abstract,2020.2.10,59.92089242838738,
,,,,Cond,stimuli/Wealth/20.jpg,right,,,,,,,,,,,,0,79,79,79,,,,,,,,,,,,,,,,,,,,,,,,,,,,,,,,,,,,,,,,1,,,,,,,,,,,,,,,,,1135.9209103999892,None,1135.9209103999892,None,right,1,1.4727833999786526,1135.9209103999892,None,1137.4208119999967,None,,,,,,,,,,,,,,,,,,,,,,,,,,,,,,,,,,1.L,001,2021_Feb_23_2059,cal_abstract,2020.2.10,59.92089242838738,
,,,,Fix1,stimuli/Old/47.jpg,right,,,,,,,,,,,,0,80,80,80,,,,,,,,,,,,,,,,,,,,,,,,,,,,,,,,,,,,,,,,1,,,,,,,,,,,,,,,,,1138.2340612999978,None,1138.2340612999978,None,right,1,1.1698383000330068,1138.2340612999978,None,1139.4240987999947,None,,,,,,,,,,,,,,,,,,,,,,,,,,,,,,,,,,1.L,001,2021_Feb_23_2059,cal_abstract,2020.2.10,59.92089242838738,
,,,,Cond,stimuli/Wealth/55.jpg,left,,,,,,,,,,,,0,81,81,81,,,,,,,,,,,,,,,,,,,,,,,,,,,,,,,,,,,,,,,,0,,,,,,,,,,,,,,,,,1140.2204785000067,None,1140.2204785000067,None,right,0,1.8832634999998845,1140.2204785000067,None,1142.1508133999887,None,,,,,,,,,,,,,,,,,,,,,,,,,,,,,,,,,,1.L,001,2021_Feb_23_2059,cal_abstract,2020.2.10,59.92089242838738,
,,,,Cond,stimuli/Wealth/37.jpg,right,,,,,,,,,,,,0,82,82,82,,,,,,,,,,,,,,,,,,,,,,,,,,,,,,,,,,,,,,,,0,,,,,,,,,,,,,,,,,1142.9216412999667,None,1142.9216412999667,None,left,0,1.771276300016325,1142.9216412999667,None,1144.7231706999592,None,,,,,,,,,,,,,,,,,,,,,,,,,,,,,,,,,,1.L,001,2021_Feb_23_2059,cal_abstract,2020.2.10,59.92089242838738,
,,,,Fix2,stimuli/Healthy/3.jpg,left,,,,,,,,,,,,0,83,83,83,,,,,,,,,,,,,,,,,,,,,,,,,,,,,,,,,,,,,,,,1,,,,,,,,,,,,,,,,,1145.4946250999928,None,1145.4946250999928,None,left,1,0.8593952999799512,1145.4946250999928,None,1146.3913666000008,None,,,,,,,,,,,,,,,,,,,,,,,,,,,,,,,,,,1.L,001,2021_Feb_23_2059,cal_abstract,2020.2.10,59.92089242838738,
,,,,Fix1,stimuli/Old/16.jpg,right,,,,,,,,,,,,0,84,84,84,,,,,,,,,,,,,,,,,,,,,,,,,,,,,,,,,,,,,,,,1,,,,,,,,,,,,,,,,,1147.1813087000046,None,1147.1813087000046,None,right,1,0.7125839000218548,1147.1813087000046,None,1147.913318499981,None,,,,,,,,,,,,,,,,,,,,,,,,,,,,,,,,,,1.L,001,2021_Feb_23_2059,cal_abstract,2020.2.10,59.92089242838738,
,,,,Fix2,stimuli/Healthy/33.jpg,left,,,,,,,,,,,,0,85,85,85,,,,,,,,,,,,,,,,,,,,,,,,,,,,,,,,,,,,,,,,1,,,,,,,,,,,,,,,,,1148.7113022999838,None,1148.7113022999838,None,left,1,1.5127537000225857,1148.7113022999838,None,1150.2483224999742,None,,,,,,,,,,,,,,,,,,,,,,,,,,,,,,,,,,1.L,001,2021_Feb_23_2059,cal_abstract,2020.2.10,59.92089242838738,
,,,,Fix1,stimuli/Old/48.jpg,right,,,,,,,,,,,,0,86,86,86,,,,,,,,,,,,,,,,,,,,,,,,,,,,,,,,,,,,,,,,1,,,,,,,,,,,,,,,,,1151.056990400015,None,1151.056990400015,None,right,1,0.806923599971924,1151.056990400015,None,1151.8974541999632,None,,,,,,,,,,,,,,,,,,,,,,,,,,,,,,,,,,1.L,001,2021_Feb_23_2059,cal_abstract,2020.2.10,59.92089242838738,
,,,,Fix1,stimuli/Old/39.jpg,right,,,,,,,,,,,,0,87,87,87,,,,,,,,,,,,,,,,,,,,,,,,,,,,,,,,,,,,,,,,1,,,,,,,,,,,,,,,,,1152.698460899992,None,1152.698460899992,None,right,1,0.8355961000197567,1152.698460899992,None,1153.5652477999683,None,,,,,,,,,,,,,,,,,,,,,,,,,,,,,,,,,,1.L,001,2021_Feb_23_2059,cal_abstract,2020.2.10,59.92089242838738,
,,,,Fix1,stimuli/Old/18.jpg,right,,,,,,,,,,,,0,88,88,88,,,,,,,,,,,,,,,,,,,,,,,,,,,,,,,,,,,,,,,,1,,,,,,,,,,,,,,,,,1154.3829552999814,None,1154.3829552999814,None,right,1,0.681043199962005,1154.3829552999814,None,1155.084266699967,None,,,,,,,,,,,,,,,,,,,,,,,,,,,,,,,,,,1.L,001,2021_Feb_23_2059,cal_abstract,2020.2.10,59.92089242838738,
,,,,Fix1,stimuli/Old/13.jpg,right,,,,,,,,,,,,0,89,89,89,,,,,,,,,,,,,,,,,,,,,,,,,,,,,,,,,,,,,,,,1,,,,,,,,,,,,,,,,,1155.8883045999683,None,1155.8883045999683,None,right,1,0.7568334000534378,1155.8883045999683,None,1156.6678487999598,None,,,,,,,,,,,,,,,,,,,,,,,,,,,,,,,,,,1.L,001,2021_Feb_23_2059,cal_abstract,2020.2.10,59.92089242838738,
,,,,Fix2,stimuli/Healthy/57.jpg,left,,,,,,,,,,,,0,90,90,90,,,,,,,,,,,,,,,,,,,,,,,,,,,,,,,,,,,,,,,,0,,,,,,,,,,,,,,,,,1157.461108199961,None,1157.461108199961,None,right,0,5.123581499967258,1157.461108199961,None,1162.6225577999721,None,,,,,,,,,,,,,,,,,,,,,,,,,,,,,,,,,,1.L,001,2021_Feb_23_2059,cal_abstract,2020.2.10,59.92089242838738,
,,,,Fix2,stimuli/Healthy/19.jpg,left,,,,,,,,,,,,0,91,91,91,,,,,,,,,,,,,,,,,,,,,,,,,,,,,,,,,,,,,,,,1,,,,,,,,,,,,,,,,,1163.4054623999982,None,1163.4054623999982,None,left,1,1.3997094000224024,1163.4054623999982,None,1164.8439838999766,None,,,,,,,,,,,,,,,,,,,,,,,,,,,,,,,,,,1.L,001,2021_Feb_23_2059,cal_abstract,2020.2.10,59.92089242838738,
,,,,Fix2,stimuli/Healthy/21.jpg,left,,,,,,,,,,,,0,92,92,92,,,,,,,,,,,,,,,,,,,,,,,,,,,,,,,,,,,,,,,,1,,,,,,,,,,,,,,,,,1165.6552353000152,None,1165.6552353000152,None,left,1,0.5695592999691144,1165.6552353000152,None,1166.2423083999893,None,,,,,,,,,,,,,,,,,,,,,,,,,,,,,,,,,,1.L,001,2021_Feb_23_2059,cal_abstract,2020.2.10,59.92089242838738,
,,,,Fix2,stimuli/Healthy/0.jpg,left,,,,,,,,,,,,0,93,93,93,,,,,,,,,,,,,,,,,,,,,,,,,,,,,,,,,,,,,,,,1,,,,,,,,,,,,,,,,,1167.054276800016,None,1167.054276800016,None,left,1,0.44992779998574406,1167.054276800016,None,1167.5226389999734,None,,,,,,,,,,,,,,,,,,,,,,,,,,,,,,,,,,1.L,001,2021_Feb_23_2059,cal_abstract,2020.2.10,59.92089242838738,
,,,,Fix1,stimuli/Old/35.jpg,right,,,,,,,,,,,,0,94,94,94,,,,,,,,,,,,,,,,,,,,,,,,,,,,,,,,,,,,,,,,1,,,,,,,,,,,,,,,,,1168.317188499961,None,1168.317188499961,None,right,1,0.6377240000292659,1168.317188499961,None,1168.9761365999584,None,,,,,,,,,,,,,,,,,,,,,,,,,,,,,,,,,,1.L,001,2021_Feb_23_2059,cal_abstract,2020.2.10,59.92089242838738,
,,,,Fix2,stimuli/Healthy/56.jpg,left,,,,,,,,,,,,0,95,95,95,,,,,,,,,,,,,,,,,,,,,,,,,,,,,,,,,,,,,,,,1,,,,,,,,,,,,,,,,,1169.7722305000061,None,1169.7722305000061,None,left,1,1.4629978999728337,1169.7722305000061,None,1171.2623954999726,None,,,,,,,,,,,,,,,,,,,,,,,,,,,,,,,,,,1.L,001,2021_Feb_23_2059,cal_abstract,2020.2.10,59.92089242838738,
,,,,Cond,stimuli/Wealth/35.jpg,right,,,,,,,,,,,,0,96,96,96,,,,,,,,,,,,,,,,,,,,,,,,,,,,,,,,,,,,,,,,1,,,,,,,,,,,,,,,,,1172.0992337999633,None,1172.0992337999633,None,right,1,1.7855463000014424,1172.0992337999633,None,1173.9130244000116,None,,,,,,,,,,,,,,,,,,,,,,,,,,,,,,,,,,1.L,001,2021_Feb_23_2059,cal_abstract,2020.2.10,59.92089242838738,
,,,,Fix1,stimuli/Old/23.jpg,right,,,,,,,,,,,,0,97,97,97,,,,,,,,,,,,,,,,,,,,,,,,,,,,,,,,,,,,,,,,1,,,,,,,,,,,,,,,,,1174.7086389999604,None,1174.7086389999604,None,right,1,1.356554799946025,1174.7086389999604,None,1176.097536999965,None,,,,,,,,,,,,,,,,,,,,,,,,,,,,,,,,,,1.L,001,2021_Feb_23_2059,cal_abstract,2020.2.10,59.92089242838738,
,,,,Cond,stimuli/Wealth/42.jpg,left,,,,,,,,,,,,0,98,98,98,,,,,,,,,,,,,,,,,,,,,,,,,,,,,,,,,,,,,,,,0,,,,,,,,,,,,,,,,,1176.8692293000058,None,1176.8692293000058,None,right,0,3.0556507000001147,1176.8692293000058,None,1179.968553100014,None,,,,,,,,,,,,,,,,,,,,,,,,,,,,,,,,,,1.L,001,2021_Feb_23_2059,cal_abstract,2020.2.10,59.92089242838738,
,,,,Fix2,stimuli/Healthy/24.jpg,left,,,,,,,,,,,,0,99,99,99,,,,,,,,,,,,,,,,,,,,,,,,,,,,,,,,,,,,,,,,1,,,,,,,,,,,,,,,,,1180.7692701999913,None,1180.7692701999913,None,left,1,1.016131900018081,1180.7692701999913,None,1181.830815399997,None,,,,,,,,,,,,,,,,,,,,,,,,,,,,,,,,,,1.L,001,2021_Feb_23_2059,cal_abstract,2020.2.10,59.92089242838738,
,,,,Cond,stimuli/Wealth/54.jpg,right,,,,,,,,,,,,0,100,100,100,,,,,,,,,,,,,,,,,,,,,,,,,,,,,,,,,,,,,,,,0,,,,,,,,,,,,,,,,,1182.6375112999813,None,1182.6375112999813,None,left,0,1.3167213999549858,1182.6375112999813,None,1183.9861778999912,None,,,,,,,,,,,,,,,,,,,,,,,,,,,,,,,,,,1.L,001,2021_Feb_23_2059,cal_abstract,2020.2.10,59.92089242838738,
,,,,Cond,stimuli/Wealth/4.jpg,left,,,,,,,,,,,,0,101,101,101,,,,,,,,,,,,,,,,,,,,,,,,,,,,,,,,,,,,,,,,0,,,,,,,,,,,,,,,,,1184.8239272999926,None,1184.8239272999926,None,right,0,1.9808833999559283,1184.8239272999926,None,1186.8251408999786,None,,,,,,,,,,,,,,,,,,,,,,,,,,,,,,,,,,1.L,001,2021_Feb_23_2059,cal_abstract,2020.2.10,59.92089242838738,
,,,,Fix2,stimuli/Healthy/48.jpg,left,,,,,,,,,,,,0,102,102,102,,,,,,,,,,,,,,,,,,,,,,,,,,,,,,,,,,,,,,,,1,,,,,,,,,,,,,,,,,1187.6419038999593,None,1187.6419038999593,None,left,1,0.8129119999939576,1187.6419038999593,None,1188.4815550000058,None,,,,,,,,,,,,,,,,,,,,,,,,,,,,,,,,,,1.L,001,2021_Feb_23_2059,cal_abstract,2020.2.10,59.92089242838738,
,,,,Fix2,stimuli/Healthy/15.jpg,left,,,,,,,,,,,,0,103,103,103,,,,,,,,,,,,,,,,,,,,,,,,,,,,,,,,,,,,,,,,1,,,,,,,,,,,,,,,,,1189.256516799971,None,1189.256516799971,None,left,1,0.9381764000281692,1189.256516799971,None,1190.2234934999724,None,,,,,,,,,,,,,,,,,,,,,,,,,,,,,,,,,,1.L,001,2021_Feb_23_2059,cal_abstract,2020.2.10,59.92089242838738,
,,,,Cond,stimuli/Wealth/38.jpg,right,,,,,,,,,,,,0,104,104,104,,,,,,,,,,,,,,,,,,,,,,,,,,,,,,,,,,,,,,,,1,,,,,,,,,,,,,,,,,1191.0248480999726,None,1191.0248480999726,None,right,1,4.5803488999954425,1191.0248480999726,None,1195.6278588999994,None,,,,,,,,,,,,,,,,,,,,,,,,,,,,,,,,,,1.L,001,2021_Feb_23_2059,cal_abstract,2020.2.10,59.92089242838738,
,,,,Cond,stimuli/Wealth/21.jpg,left,,,,,,,,,,,,0,105,105,105,,,,,,,,,,,,,,,,,,,,,,,,,,,,,,,,,,,,,,,,1,,,,,,,,,,,,,,,,,1196.4319943999872,None,1196.4319943999872,None,left,1,0.8330361999687739,1196.4319943999872,None,1197.2966111999704,None,,,,,,,,,,,,,,,,,,,,,,,,,,,,,,,,,,1.L,001,2021_Feb_23_2059,cal_abstract,2020.2.10,59.92089242838738,
,,,,Fix2,stimuli/Healthy/36.jpg,left,,,,,,,,,,,,0,106,106,106,,,,,,,,,,,,,,,,,,,,,,,,,,,,,,,,,,,,,,,,1,,,,,,,,,,,,,,,,,1198.0929975999752,None,1198.0929975999752,None,left,1,3.372686899965629,1198.0929975999752,None,1201.4962363999803,None,,,,,,,,,,,,,,,,,,,,,,,,,,,,,,,,,,1.L,001,2021_Feb_23_2059,cal_abstract,2020.2.10,59.92089242838738,
,,,,Fix1,stimuli/Old/12.jpg,right,,,,,,,,,,,,0,107,107,107,,,,,,,,,,,,,,,,,,,,,,,,,,,,,,,,,,,,,,,,1,,,,,,,,,,,,,,,,,1202.3111019000062,None,1202.3111019000062,None,right,1,0.8251197999925353,1202.3111019000062,None,1203.1667604999966,None,,,,,,,,,,,,,,,,,,,,,,,,,,,,,,,,,,1.L,001,2021_Feb_23_2059,cal_abstract,2020.2.10,59.92089242838738,
,,,,Fix2,stimuli/Healthy/69.jpg,left,,,,,,,,,,,,0,108,108,108,,,,,,,,,,,,,,,,,,,,,,,,,,,,,,,,,,,,,,,,1,,,,,,,,,,,,,,,,,1203.9633603999973,None,1203.9633603999973,None,left,1,0.9426716000307351,1203.9633603999973,None,1204.9346977999667,None,,,,,,,,,,,,,,,,,,,,,,,,,,,,,,,,,,1.L,001,2021_Feb_23_2059,cal_abstract,2020.2.10,59.92089242838738,
,,,,Fix2,stimuli/Healthy/30.jpg,left,,,,,,,,,,,,0,109,109,109,,,,,,,,,,,,,,,,,,,,,,,,,,,,,,,,,,,,,,,,1,,,,,,,,,,,,,,,,,1205.7406454000156,None,1205.7406454000156,None,left,1,0.535212800023146,1205.7406454000156,None,1206.3012687999872,None,,,,,,,,,,,,,,,,,,,,,,,,,,,,,,,,,,1.L,001,2021_Feb_23_2059,cal_abstract,2020.2.10,59.92089242838738,
,,,,Cond,stimuli/Wealth/23.jpg,right,,,,,,,,,,,,0,110,110,110,,,,,,,,,,,,,,,,,,,,,,,,,,,,,,,,,,,,,,,,0,,,,,,,,,,,,,,,,,1207.0801323999767,None,1207.0801323999767,None,left,0,0.705605499970261,1207.0801323999767,None,1207.8170133999665,None,,,,,,,,,,,,,,,,,,,,,,,,,,,,,,,,,,1.L,001,2021_Feb_23_2059,cal_abstract,2020.2.10,59.92089242838738,
,,,,Fix1,stimuli/Old/9.jpg,right,,,,,,,,,,,,0,111,111,111,,,,,,,,,,,,,,,,,,,,,,,,,,,,,,,,,,,,,,,,1,,,,,,,,,,,,,,,,,1208.6084964000038,None,1208.6084964000038,None,right,1,1.2777341999462806,1208.6084964000038,None,1209.9205027999706,None,,,,,,,,,,,,,,,,,,,,,,,,,,,,,,,,,,1.L,001,2021_Feb_23_2059,cal_abstract,2020.2.10,59.92089242838738,
,,,,Fix1,stimuli/Old/50.jpg,right,,,,,,,,,,,,0,112,112,112,,,,,,,,,,,,,,,,,,,,,,,,,,,,,,,,,,,,,,,,1,,,,,,,,,,,,,,,,,1210.7085733999847,None,1210.7085733999847,None,right,1,0.8771015999955125,1210.7085733999847,None,1211.6058878999902,None,,,,,,,,,,,,,,,,,,,,,,,,,,,,,,,,,,1.L,001,2021_Feb_23_2059,cal_abstract,2020.2.10,59.92089242838738,
,,,,Fix1,stimuli/Old/5.jpg,right,,,,,,,,,,,,0,113,113,113,,,,,,,,,,,,,,,,,,,,,,,,,,,,,,,,,,,,,,,,0,,,,,,,,,,,,,,,,,1212.427785500011,None,1212.427785500011,None,left,0,1.7983519000117667,1212.427785500011,None,1214.269002599991,None,,,,,,,,,,,,,,,,,,,,,,,,,,,,,,,,,,1.L,001,2021_Feb_23_2059,cal_abstract,2020.2.10,59.92089242838738,
,,,,Fix1,stimuli/Old/57.jpg,right,,,,,,,,,,,,0,114,114,114,,,,,,,,,,,,,,,,,,,,,,,,,,,,,,,,,,,,,,,,1,,,,,,,,,,,,,,,,,1215.0571664999588,None,1215.0571664999588,None,right,1,0.6291626999736764,1215.0571664999588,None,1215.725851700001,None,,,,,,,,,,,,,,,,,,,,,,,,,,,,,,,,,,1.L,001,2021_Feb_23_2059,cal_abstract,2020.2.10,59.92089242838738,
,,,,Cond,stimuli/Wealth/15.jpg,left,,,,,,,,,,,,0,115,115,115,,,,,,,,,,,,,,,,,,,,,,,,,,,,,,,,,,,,,,,,0,,,,,,,,,,,,,,,,,1216.485814799962,None,1216.485814799962,None,right,0,2.4506453999783844,1216.485814799962,None,1218.978885199991,None,,,,,,,,,,,,,,,,,,,,,,,,,,,,,,,,,,1.L,001,2021_Feb_23_2059,cal_abstract,2020.2.10,59.92089242838738,
,,,,Fix1,stimuli/Old/26.jpg,right,,,,,,,,,,,,0,116,116,116,,,,,,,,,,,,,,,,,,,,,,,,,,,,,,,,,,,,,,,,1,,,,,,,,,,,,,,,,,1219.7635572999716,None,1219.7635572999716,None,right,1,8.281633600010537,1219.7635572999716,None,1228.0724205999868,None,,,,,,,,,,,,,,,,,,,,,,,,,,,,,,,,,,1.L,001,2021_Feb_23_2059,cal_abstract,2020.2.10,59.92089242838738,
,,,,Cond,stimuli/Wealth/47.jpg,left,,,,,,,,,,,,0,117,117,117,,,,,,,,,,,,,,,,,,,,,,,,,,,,,,,,,,,,,,,,0,,,,,,,,,,,,,,,,,1228.8627948999638,None,1228.8627948999638,None,right,0,1.4633804999757558,1228.8627948999638,None,1230.3698564000078,None,,,,,,,,,,,,,,,,,,,,,,,,,,,,,,,,,,1.L,001,2021_Feb_23_2059,cal_abstract,2020.2.10,59.92089242838738,
,,,,Cond,stimuli/Wealth/30.jpg,right,,,,,,,,,,,,0,118,118,118,,,,,,,,,,,,,,,,,,,,,,,,,,,,,,,,,,,,,,,,0,,,,,,,,,,,,,,,,,1231.1624240999809,None,1231.1624240999809,None,left,0,6.913650900009088,1231.1624240999809,None,1238.1071279000025,None,,,,,,,,,,,,,,,,,,,,,,,,,,,,,,,,,,1.L,001,2021_Feb_23_2059,cal_abstract,2020.2.10,59.92089242838738,
,,,,Cond,stimuli/Wealth/36.jpg,left,,,,,,,,,,,,0,119,119,119,,,,,,,,,,,,,,,,,,,,,,,,,,,,,,,,,,,,,,,,1,,,,,,,,,,,,,,,,,1238.9241558999638,None,1238.9241558999638,None,left,1,27.72270710003795,1238.9241558999638,None,1266.6919205999584,None,,,,,,,,,,,,,,,,,,,,,,,,,,,,,,,,,,1.L,001,2021_Feb_23_2059,cal_abstract,2020.2.10,59.92089242838738,
,,,,Fix1,stimuli/Old/11.jpg,right,,,,,,,,,,,,0,120,120,120,,,,,,,,,,,,,,,,,,,,,,,,,,,,,,,,,,,,,,,,1,,,,,,,,,,,,,,,,,1267.4817921000067,None,1267.4817921000067,None,right,1,1.1553701999946497,1267.4817921000067,None,1268.6611893000081,None,,,,,,,,,,,,,,,,,,,,,,,,,,,,,,,,,,1.L,001,2021_Feb_23_2059,cal_abstract,2020.2.10,59.92089242838738,
,,,,Cond,stimuli/Wealth/34.jpg,left,,,,,,,,,,,,0,121,121,121,,,,,,,,,,,,,,,,,,,,,,,,,,,,,,,,,,,,,,,,0,,,,,,,,,,,,,,,,,1269.5063841000083,None,1269.5063841000083,None,right,0,1.250838699983433,1269.5063841000083,None,1270.7980564999743,None,,,,,,,,,,,,,,,,,,,,,,,,,,,,,,,,,,1.L,001,2021_Feb_23_2059,cal_abstract,2020.2.10,59.92089242838738,
,,,,Fix2,stimuli/Healthy/46.jpg,left,,,,,,,,,,,,0,122,122,122,,,,,,,,,,,,,,,,,,,,,,,,,,,,,,,,,,,,,,,,1,,,,,,,,,,,,,,,,,1271.5883296999964,None,1271.5883296999964,None,left,1,0.6884219999774359,1271.5883296999964,None,1272.3148888999713,None,,,,,,,,,,,,,,,,,,,,,,,,,,,,,,,,,,1.L,001,2021_Feb_23_2059,cal_abstract,2020.2.10,59.92089242838738,
,,,,Fix1,stimuli/Old/32.jpg,right,,,,,,,,,,,,0,123,123,123,,,,,,,,,,,,,,,,,,,,,,,,,,,,,,,,,,,,,,,,1,,,,,,,,,,,,,,,,,1273.1137076999876,None,1273.1137076999876,None,right,1,0.6433667000383139,1273.1137076999876,None,1273.7829964999692,None,,,,,,,,,,,,,,,,,,,,,,,,,,,,,,,,,,1.L,001,2021_Feb_23_2059,cal_abstract,2020.2.10,59.92089242838738,
,,,,Cond,stimuli/Wealth/48.jpg,left,,,,,,,,,,,,0,124,124,124,,,,,,,,,,,,,,,,,,,,,,,,,,,,,,,,,,,,,,,,1,,,,,,,,,,,,,,,,,1274.5625972999842,None,1274.5625972999842,None,left,1,1.2141598000307567,1274.5625972999842,None,1275.8003099999623,None,,,,,,,,,,,,,,,,,,,,,,,,,,,,,,,,,,1.L,001,2021_Feb_23_2059,cal_abstract,2020.2.10,59.92089242838738,
,,,,Fix1,stimuli/Old/27.jpg,right,,,,,,,,,,,,0,125,125,125,,,,,,,,,,,,,,,,,,,,,,,,,,,,,,,,,,,,,,,,1,,,,,,,,,,,,,,,,,1276.6006933999597,None,1276.6006933999597,None,right,1,0.9466813000035472,1276.6006933999597,None,1277.5686255999608,None,,,,,,,,,,,,,,,,,,,,,,,,,,,,,,,,,,1.L,001,2021_Feb_23_2059,cal_abstract,2020.2.10,59.92089242838738,
,,,,Cond,stimuli/Wealth/29.jpg,left,,,,,,,,,,,,0,126,126,126,,,,,,,,,,,,,,,,,,,,,,,,,,,,,,,,,,,,,,,,0,,,,,,,,,,,,,,,,,1278.3675842999946,None,1278.3675842999946,None,right,0,1.229362800018862,1278.3675842999946,None,1279.6359289999818,None,,,,,,,,,,,,,,,,,,,,,,,,,,,,,,,,,,1.L,001,2021_Feb_23_2059,cal_abstract,2020.2.10,59.92089242838738,
,,,,Fix1,stimuli/Old/42.jpg,right,,,,,,,,,,,,0,127,127,127,,,,,,,,,,,,,,,,,,,,,,,,,,,,,,,,,,,,,,,,0,,,,,,,,,,,,,,,,,1280.436580199981,None,1280.436580199981,None,left,0,1.1501852000365034,1280.436580199981,None,1281.6049592999625,None,,,,,,,,,,,,,,,,,,,,,,,,,,,,,,,,,,1.L,001,2021_Feb_23_2059,cal_abstract,2020.2.10,59.92089242838738,
,,,,Fix1,stimuli/Old/4.jpg,right,,,,,,,,,,,,0,128,128,128,,,,,,,,,,,,,,,,,,,,,,,,,,,,,,,,,,,,,,,,1,,,,,,,,,,,,,,,,,1282.388593200012,None,1282.388593200012,None,right,1,1.2292568999691866,1282.388593200012,None,1283.6539670999628,None,,,,,,,,,,,,,,,,,,,,,,,,,,,,,,,,,,1.L,001,2021_Feb_23_2059,cal_abstract,2020.2.10,59.92089242838738,
,,,,Fix2,stimuli/Healthy/31.jpg,left,,,,,,,,,,,,0,129,129,129,,,,,,,,,,,,,,,,,,,,,,,,,,,,,,,,,,,,,,,,1,,,,,,,,,,,,,,,,,1284.4536723999772,None,1284.4536723999772,None,left,1,7.164268699998502,1284.4536723999772,None,1291.644293999998,None,,,,,,,,,,,,,,,,,,,,,,,,,,,,,,,,,,1.L,001,2021_Feb_23_2059,cal_abstract,2020.2.10,59.92089242838738,
