Text,Block1Type,Block1Stim,Block1Corr,Block2Type,Block2Stim,Block2Corr,Block3Type,Block3Stim,Block3Corr,Instruction_loop.thisRepN,Instruction_loop.thisTrialN,Instruction_loop.thisN,Instruction_loop.thisIndex,Block1_loop.thisRepN,Block1_loop.thisTrialN,Block1_loop.thisN,Block1_loop.thisIndex,Block2_loop.thisRepN,Block2_loop.thisTrialN,Block2_loop.thisN,Block2_loop.thisIndex,Block3_loop.thisRepN,Block3_loop.thisTrialN,Block3_loop.thisN,Block3_loop.thisIndex,welcome_text1.started,welcome_text1.stopped,welcome_text2.started,welcome_text2.stopped,welcome_text3.started,welcome_text3.stopped,welcome_resp.keys,welcome_resp.rt,welcome_resp.started,welcome_resp.stopped,instruct_text1.started,instruct_text1.stopped,instruct_text2.started,instruct_text2.stopped,instruct_resp1.keys,instruct_resp1.rt,instruct_resp1.started,instruct_resp1.stopped,start_text1.started,start_text1.stopped,start_text2.started,start_text2.stopped,start_resp1.keys,start_resp1.rt,start_resp1.started,start_resp1.stopped,image1.started,image1.stopped,text1.started,text1.stopped,key_resp1.keys,key_resp1.corr,key_resp1.rt,key_resp1.started,key_resp1.stopped,trialCorrect,feedback_text1.started,feedback_text1.stopped,break_text1.started,break_text1.stopped,break_resp1.keys,break_resp1.rt,break_resp1.started,break_resp1.stopped,start_text3.started,start_text3.stopped,start_text4.started,start_text4.stopped,start_resp2.keys,start_resp2.rt,start_resp2.started,start_resp2.stopped,image2.started,image2.stopped,text2.started,text2.stopped,key_resp2.keys,key_resp2.corr,key_resp2.rt,key_resp2.started,key_resp2.stopped,feedback_text2.started,feedback_text2.stopped,break_text2.started,break_text2.stopped,break_resp2.keys,break_resp2.rt,break_resp2.started,break_resp2.stopped,start_text5.started,start_text5.stopped,start_text6.started,start_text6.stopped,start_resp3.keys,start_resp3.rt,start_resp3.started,start_resp3.stopped,image3.started,image3.stopped,text3.started,text3.stopped,key_resp3.keys,key_resp3.corr,key_resp3.rt,key_resp3.started,key_resp3.stopped,feedback_text3.started,feedback_text3.stopped,end_text1.started,end_text1.stopped,end_text2.started,end_text2.stopped,end_resp.keys,end_resp.rt,end_resp.started,end_resp.stopped,participant,session,date,expName,psychopyVersion,frameRate,
,,,,,,,,,,,,,,,,,,,,,,,,,,38.023534499981906,None,38.023534499981906,None,38.023534499981906,None,return,32.94867800001521,38.023534499981906,None,,,,,,,,,,,,,,,,,,,,,,,,,,,,,,,,,,,,,,,,,,,,,,,,,,,,,,,,,,,,,,,,,,,,,,,,,,,,,,,,,,,,,,,2.L,001,2021_Feb_24_1343,cal_abstract,2020.2.10,59.859485846139094,
"You will be presented with a series of images. It is your job to learn, through trial and error, whether the “Left” or “Right” arrow key should be pressed for each image.",,,,,,,,,,0,0,0,0,,,,,,,,,,,,,,,,,,,,,,,71.21355899999617,None,71.21355899999617,None,return,11.569111599994358,71.21355899999617,None,,,,,,,,,,,,,,,,,,,,,,,,,,,,,,,,,,,,,,,,,,,,,,,,,,,,,,,,,,,,,,,,,,,,,,,,,,,,,,,2.L,001,2021_Feb_24_1343,cal_abstract,2020.2.10,59.859485846139094,
"For some images you should always press “Left”, and for others you should always press “Right” arrow key.",,,,,,,,,,0,1,1,1,,,,,,,,,,,,,,,,,,,,,,,82.83166710002115,None,82.83166710002115,None,return,6.241385300003458,82.83166710002115,None,,,,,,,,,,,,,,,,,,,,,,,,,,,,,,,,,,,,,,,,,,,,,,,,,,,,,,,,,,,,,,,,,,,,,,,,,,,,,,,2.L,001,2021_Feb_24_1343,cal_abstract,2020.2.10,59.859485846139094,
"Some images are special: the correct response is the opposite of the preceding correct response. That is, if the previous correct answer was “Left” then the correct response would now be “Right”.",,,,,,,,,,0,2,2,2,,,,,,,,,,,,,,,,,,,,,,,89.12161580001703,None,89.12161580001703,None,return,37.33660170005169,89.12161580001703,None,,,,,,,,,,,,,,,,,,,,,,,,,,,,,,,,,,,,,,,,,,,,,,,,,,,,,,,,,,,,,,,,,,,,,,,,,,,,,,,2.L,001,2021_Feb_24_1343,cal_abstract,2020.2.10,59.859485846139094,
"After each response, you will be told whether you got the item correct or incorrect.",,,,,,,,,,0,3,3,3,,,,,,,,,,,,,,,,,,,,,,,126.50336430000607,None,126.50336430000607,None,return,7.903031699999701,126.50336430000607,None,,,,,,,,,,,,,,,,,,,,,,,,,,,,,,,,,,,,,,,,,,,,,,,,,,,,,,,,,,,,,,,,,,,,,,,,,,,,,,,2.L,001,2021_Feb_24_1343,cal_abstract,2020.2.10,59.859485846139094,
"You can take as long as you like on each image, but the task will not continue until you press the “Left” or “Right” arrow key.",,,,,,,,,,0,4,4,4,,,,,,,,,,,,,,,,,,,,,,,134.43872420000844,None,134.43872420000844,None,return,4.928554499987513,134.43872420000844,None,,,,,,,,,,,,,,,,,,,,,,,,,,,,,,,,,,,,,,,,,,,,,,,,,,,,,,,,,,,,,,,,,,,,,,,,,,,,,,,2.L,001,2021_Feb_24_1343,cal_abstract,2020.2.10,59.859485846139094,
"The experiment will have three blocks, each block will take approximately 10 minutes to complete.",,,,,,,,,,0,5,5,5,,,,,,,,,,,,,,,,,,,,,,,139.41179849999025,None,139.41179849999025,None,return,6.115709899982903,139.41179849999025,None,,,,,,,,,,,,,,,,,,,,,,,,,,,,,,,,,,,,,,,,,,,,,,,,,,,,,,,,,,,,,,,,,,,,,,,,,,,,,,,2.L,001,2021_Feb_24_1343,cal_abstract,2020.2.10,59.859485846139094,
,,,,,,,,,,,,,,,,,,,,,,,,,,,,,,,,,,,,,,,,,,,,145.54766709997784,None,145.54766709997784,None,s,4.35033340001246,145.54766709997784,None,,,,,,,,,,,,,,,,,,,,,,,,,,,,,,,,,,,,,,,,,,,,,,,,,,,,,,,,,,,,,,,,,,,,,,,2.L,001,2021_Feb_24_1343,cal_abstract,2020.2.10,59.859485846139094,
,Fix2,stimuli/Dangerous/15.jpg,right,,,,,,,,,,,0,0,0,0,,,,,,,,,,,,,,,,,,,,,,,,,,,,,,,,,,,150.190844799974,None,150.190844799974,None,left,0,8.217839499993715,150.190844799974,None,0,158.49724220001372,None,,,,,,,,,,,,,,,,,,,,,,,,,,,,,,,,,,,,,,,,,,,,,,,,,,,,,,,,,,,2.L,001,2021_Feb_24_1343,cal_abstract,2020.2.10,59.859485846139094,
,Fix1,stimuli/School/26.jpg,left,,,,,,,,,,,0,1,1,1,,,,,,,,,,,,,,,,,,,,,,,,,,,,,,,,,,,159.27741460001562,None,159.27741460001562,None,left,1,3.170867500011809,159.27741460001562,None,1,162.52014059998328,None,,,,,,,,,,,,,,,,,,,,,,,,,,,,,,,,,,,,,,,,,,,,,,,,,,,,,,,,,,,2.L,001,2021_Feb_24_1343,cal_abstract,2020.2.10,59.859485846139094,
,Cond,stimuli/Small/10.jpg,right,,,,,,,,,,,0,2,2,2,,,,,,,,,,,,,,,,,,,,,,,,,,,,,,,,,,,163.30844390002312,None,163.30844390002312,None,left,0,14.938887199969031,163.30844390002312,None,0,178.2897968000034,None,,,,,,,,,,,,,,,,,,,,,,,,,,,,,,,,,,,,,,,,,,,,,,,,,,,,,,,,,,,2.L,001,2021_Feb_24_1343,cal_abstract,2020.2.10,59.859485846139094,
,Fix1,stimuli/School/25.jpg,left,,,,,,,,,,,0,3,3,3,,,,,,,,,,,,,,,,,,,,,,,,,,,,,,,,,,,179.06961000000592,None,179.06961000000592,None,left,1,1.4192743999883533,179.06961000000592,None,1,180.52707609999925,None,,,,,,,,,,,,,,,,,,,,,,,,,,,,,,,,,,,,,,,,,,,,,,,,,,,,,,,,,,,2.L,001,2021_Feb_24_1343,cal_abstract,2020.2.10,59.859485846139094,
,Fix2,stimuli/Dangerous/30.jpg,right,,,,,,,,,,,0,4,4,4,,,,,,,,,,,,,,,,,,,,,,,,,,,,,,,,,,,181.37025560002076,None,181.37025560002076,None,right,1,1.658975799975451,181.37025560002076,None,1,183.0599474000046,None,,,,,,,,,,,,,,,,,,,,,,,,,,,,,,,,,,,,,,,,,,,,,,,,,,,,,,,,,,,2.L,001,2021_Feb_24_1343,cal_abstract,2020.2.10,59.859485846139094,
,Fix2,stimuli/Dangerous/42.jpg,right,,,,,,,,,,,0,5,5,5,,,,,,,,,,,,,,,,,,,,,,,,,,,,,,,,,,,183.84494069998618,None,183.84494069998618,None,left,0,3.3140195999876596,183.84494069998618,None,0,187.1985947000212,None,,,,,,,,,,,,,,,,,,,,,,,,,,,,,,,,,,,,,,,,,,,,,,,,,,,,,,,,,,,2.L,001,2021_Feb_24_1343,cal_abstract,2020.2.10,59.859485846139094,
,Cond,stimuli/Small/4.jpg,left,,,,,,,,,,,0,6,6,6,,,,,,,,,,,,,,,,,,,,,,,,,,,,,,,,,,,187.98283649998484,None,187.98283649998484,None,right,0,1.9561063000001013,187.98283649998484,None,0,189.96577399998205,None,,,,,,,,,,,,,,,,,,,,,,,,,,,,,,,,,,,,,,,,,,,,,,,,,,,,,,,,,,,2.L,001,2021_Feb_24_1343,cal_abstract,2020.2.10,59.859485846139094,
,Fix2,stimuli/Dangerous/44.jpg,right,,,,,,,,,,,0,7,7,7,,,,,,,,,,,,,,,,,,,,,,,,,,,,,,,,,,,190.76661839999724,None,190.76661839999724,None,right,1,6.962491100013722,190.76661839999724,None,1,197.77298880001763,None,,,,,,,,,,,,,,,,,,,,,,,,,,,,,,,,,,,,,,,,,,,,,,,,,,,,,,,,,,,2.L,001,2021_Feb_24_1343,cal_abstract,2020.2.10,59.859485846139094,
,Cond,stimuli/Small/39.jpg,left,,,,,,,,,,,0,8,8,8,,,,,,,,,,,,,,,,,,,,,,,,,,,,,,,,,,,198.57088239997393,None,198.57088239997393,None,right,0,3.0978994999895804,198.57088239997393,None,0,201.71149180002976,None,,,,,,,,,,,,,,,,,,,,,,,,,,,,,,,,,,,,,,,,,,,,,,,,,,,,,,,,,,,2.L,001,2021_Feb_24_1343,cal_abstract,2020.2.10,59.859485846139094,
,Fix2,stimuli/Dangerous/34.jpg,right,,,,,,,,,,,0,9,9,9,,,,,,,,,,,,,,,,,,,,,,,,,,,,,,,,,,,202.47858509997604,None,202.47858509997604,None,left,0,10.730080800014548,202.47858509997604,None,0,213.23245429998497,None,,,,,,,,,,,,,,,,,,,,,,,,,,,,,,,,,,,,,,,,,,,,,,,,,,,,,,,,,,,2.L,001,2021_Feb_24_1343,cal_abstract,2020.2.10,59.859485846139094,
,Cond,stimuli/Small/13.jpg,left,,,,,,,,,,,0,10,10,10,,,,,,,,,,,,,,,,,,,,,,,,,,,,,,,,,,,214.02838009997504,None,214.02838009997504,None,left,1,3.250697399955243,214.02838009997504,None,1,217.3183220999781,None,,,,,,,,,,,,,,,,,,,,,,,,,,,,,,,,,,,,,,,,,,,,,,,,,,,,,,,,,,,2.L,001,2021_Feb_24_1343,cal_abstract,2020.2.10,59.859485846139094,
,Fix2,stimuli/Dangerous/6.jpg,right,,,,,,,,,,,0,11,11,11,,,,,,,,,,,,,,,,,,,,,,,,,,,,,,,,,,,218.1065977999824,None,218.1065977999824,None,right,1,2.432407599990256,218.1065977999824,None,1,220.5691018999787,None,,,,,,,,,,,,,,,,,,,,,,,,,,,,,,,,,,,,,,,,,,,,,,,,,,,,,,,,,,,2.L,001,2021_Feb_24_1343,cal_abstract,2020.2.10,59.859485846139094,
,Fix2,stimuli/Dangerous/24.jpg,right,,,,,,,,,,,0,12,12,12,,,,,,,,,,,,,,,,,,,,,,,,,,,,,,,,,,,221.38128789997427,None,221.38128789997427,None,right,1,2.5378954999614507,221.38128789997427,None,1,223.9381758000236,None,,,,,,,,,,,,,,,,,,,,,,,,,,,,,,,,,,,,,,,,,,,,,,,,,,,,,,,,,,,2.L,001,2021_Feb_24_1343,cal_abstract,2020.2.10,59.859485846139094,
,Cond,stimuli/Small/20.jpg,left,,,,,,,,,,,0,13,13,13,,,,,,,,,,,,,,,,,,,,,,,,,,,,,,,,,,,224.72289289999753,None,224.72289289999753,None,left,1,2.826056800025981,224.72289289999753,None,1,227.57017000002088,None,,,,,,,,,,,,,,,,,,,,,,,,,,,,,,,,,,,,,,,,,,,,,,,,,,,,,,,,,,,2.L,001,2021_Feb_24_1343,cal_abstract,2020.2.10,59.859485846139094,
,Fix2,stimuli/Dangerous/33.jpg,right,,,,,,,,,,,0,14,14,14,,,,,,,,,,,,,,,,,,,,,,,,,,,,,,,,,,,228.33812149998266,None,228.33812149998266,None,right,1,0.8316689999774098,228.33812149998266,None,1,229.1907809000113,None,,,,,,,,,,,,,,,,,,,,,,,,,,,,,,,,,,,,,,,,,,,,,,,,,,,,,,,,,,,2.L,001,2021_Feb_24_1343,cal_abstract,2020.2.10,59.859485846139094,
,Cond,stimuli/Small/2.jpg,left,,,,,,,,,,,0,15,15,15,,,,,,,,,,,,,,,,,,,,,,,,,,,,,,,,,,,230.01189460000023,None,230.01189460000023,None,left,1,2.927968100004364,230.01189460000023,None,1,232.962612000003,None,,,,,,,,,,,,,,,,,,,,,,,,,,,,,,,,,,,,,,,,,,,,,,,,,,,,,,,,,,,2.L,001,2021_Feb_24_1343,cal_abstract,2020.2.10,59.859485846139094,
,Fix2,stimuli/Dangerous/41.jpg,right,,,,,,,,,,,0,16,16,16,,,,,,,,,,,,,,,,,,,,,,,,,,,,,,,,,,,233.74438119999832,None,233.74438119999832,None,right,1,1.7860052000032738,233.74438119999832,None,1,235.5606311999727,None,,,,,,,,,,,,,,,,,,,,,,,,,,,,,,,,,,,,,,,,,,,,,,,,,,,,,,,,,,,2.L,001,2021_Feb_24_1343,cal_abstract,2020.2.10,59.859485846139094,
,Fix1,stimuli/School/56.jpg,left,,,,,,,,,,,0,17,17,17,,,,,,,,,,,,,,,,,,,,,,,,,,,,,,,,,,,236.33710940001765,None,236.33710940001765,None,left,1,3.9630139999790117,236.33710940001765,None,1,240.33394059998682,None,,,,,,,,,,,,,,,,,,,,,,,,,,,,,,,,,,,,,,,,,,,,,,,,,,,,,,,,,,,2.L,001,2021_Feb_24_1343,cal_abstract,2020.2.10,59.859485846139094,
,Cond,stimuli/Small/57.jpg,right,,,,,,,,,,,0,18,18,18,,,,,,,,,,,,,,,,,,,,,,,,,,,,,,,,,,,241.13255809998373,None,241.13255809998373,None,left,0,2.1275558000197634,241.13255809998373,None,0,243.30391630000668,None,,,,,,,,,,,,,,,,,,,,,,,,,,,,,,,,,,,,,,,,,,,,,,,,,,,,,,,,,,,2.L,001,2021_Feb_24_1343,cal_abstract,2020.2.10,59.859485846139094,
,Fix2,stimuli/Dangerous/58.jpg,right,,,,,,,,,,,0,19,19,19,,,,,,,,,,,,,,,,,,,,,,,,,,,,,,,,,,,244.07146910001757,None,244.07146910001757,None,right,1,6.248597299971152,244.07146910001757,None,1,250.35832960001426,None,,,,,,,,,,,,,,,,,,,,,,,,,,,,,,,,,,,,,,,,,,,,,,,,,,,,,,,,,,,2.L,001,2021_Feb_24_1343,cal_abstract,2020.2.10,59.859485846139094,
,Cond,stimuli/Small/58.jpg,left,,,,,,,,,,,0,20,20,20,,,,,,,,,,,,,,,,,,,,,,,,,,,,,,,,,,,251.12452279997524,None,251.12452279997524,None,left,1,5.785375999985263,251.12452279997524,None,1,256.9435866000131,None,,,,,,,,,,,,,,,,,,,,,,,,,,,,,,,,,,,,,,,,,,,,,,,,,,,,,,,,,,,2.L,001,2021_Feb_24_1343,cal_abstract,2020.2.10,59.859485846139094,
,Fix2,stimuli/Dangerous/20.jpg,right,,,,,,,,,,,0,21,21,21,,,,,,,,,,,,,,,,,,,,,,,,,,,,,,,,,,,257.76725019997684,None,257.76725019997684,None,right,1,1.1726521999808028,257.76725019997684,None,1,258.9616288000252,None,,,,,,,,,,,,,,,,,,,,,,,,,,,,,,,,,,,,,,,,,,,,,,,,,,,,,,,,,,,2.L,001,2021_Feb_24_1343,cal_abstract,2020.2.10,59.859485846139094,
,Cond,stimuli/Small/29.jpg,left,,,,,,,,,,,0,22,22,22,,,,,,,,,,,,,,,,,,,,,,,,,,,,,,,,,,,259.7481920000282,None,259.7481920000282,None,left,1,4.971432099991944,259.7481920000282,None,1,264.74923040001886,None,,,,,,,,,,,,,,,,,,,,,,,,,,,,,,,,,,,,,,,,,,,,,,,,,,,,,,,,,,,2.L,001,2021_Feb_24_1343,cal_abstract,2020.2.10,59.859485846139094,
,Fix2,stimuli/Dangerous/46.jpg,right,,,,,,,,,,,0,23,23,23,,,,,,,,,,,,,,,,,,,,,,,,,,,,,,,,,,,265.564870400005,None,265.564870400005,None,right,1,1.086367700016126,265.564870400005,None,1,266.6819537000265,None,,,,,,,,,,,,,,,,,,,,,,,,,,,,,,,,,,,,,,,,,,,,,,,,,,,,,,,,,,,2.L,001,2021_Feb_24_1343,cal_abstract,2020.2.10,59.859485846139094,
,Fix1,stimuli/School/10.jpg,left,,,,,,,,,,,0,24,24,24,,,,,,,,,,,,,,,,,,,,,,,,,,,,,,,,,,,267.4588034999906,None,267.4588034999906,None,left,1,2.6921437000273727,267.4588034999906,None,1,270.1715916999965,None,,,,,,,,,,,,,,,,,,,,,,,,,,,,,,,,,,,,,,,,,,,,,,,,,,,,,,,,,,,2.L,001,2021_Feb_24_1343,cal_abstract,2020.2.10,59.859485846139094,
,Fix1,stimuli/School/50.jpg,left,,,,,,,,,,,0,25,25,25,,,,,,,,,,,,,,,,,,,,,,,,,,,,,,,,,,,270.9510983999935,None,270.9510983999935,None,left,1,2.1401150000165217,270.9510983999935,None,1,273.12230370001635,None,,,,,,,,,,,,,,,,,,,,,,,,,,,,,,,,,,,,,,,,,,,,,,,,,,,,,,,,,,,2.L,001,2021_Feb_24_1343,cal_abstract,2020.2.10,59.859485846139094,
,Cond,stimuli/Small/19.jpg,right,,,,,,,,,,,0,26,26,26,,,,,,,,,,,,,,,,,,,,,,,,,,,,,,,,,,,273.90696759999264,None,273.90696759999264,None,left,0,1.3338991000200622,273.90696759999264,None,0,275.29256420000456,None,,,,,,,,,,,,,,,,,,,,,,,,,,,,,,,,,,,,,,,,,,,,,,,,,,,,,,,,,,,2.L,001,2021_Feb_24_1343,cal_abstract,2020.2.10,59.859485846139094,
,Fix1,stimuli/School/28.jpg,left,,,,,,,,,,,0,27,27,27,,,,,,,,,,,,,,,,,,,,,,,,,,,,,,,,,,,276.05806429998484,None,276.05806429998484,None,left,1,5.472875299979933,276.05806429998484,None,1,281.5790798999951,None,,,,,,,,,,,,,,,,,,,,,,,,,,,,,,,,,,,,,,,,,,,,,,,,,,,,,,,,,,,2.L,001,2021_Feb_24_1343,cal_abstract,2020.2.10,59.859485846139094,
,Fix1,stimuli/School/35.jpg,left,,,,,,,,,,,0,28,28,28,,,,,,,,,,,,,,,,,,,,,,,,,,,,,,,,,,,282.3489178000018,None,282.3489178000018,None,left,1,2.3522413999889977,282.3489178000018,None,1,284.7292956999736,None,,,,,,,,,,,,,,,,,,,,,,,,,,,,,,,,,,,,,,,,,,,,,,,,,,,,,,,,,,,2.L,001,2021_Feb_24_1343,cal_abstract,2020.2.10,59.859485846139094,
,Fix1,stimuli/School/39.jpg,left,,,,,,,,,,,0,29,29,29,,,,,,,,,,,,,,,,,,,,,,,,,,,,,,,,,,,285.518876200018,None,285.518876200018,None,left,1,2.422104900004342,285.518876200018,None,1,287.96673310000915,None,,,,,,,,,,,,,,,,,,,,,,,,,,,,,,,,,,,,,,,,,,,,,,,,,,,,,,,,,,,2.L,001,2021_Feb_24_1343,cal_abstract,2020.2.10,59.859485846139094,
,Cond,stimuli/Small/42.jpg,right,,,,,,,,,,,0,30,30,30,,,,,,,,,,,,,,,,,,,,,,,,,,,,,,,,,,,288.7460671000299,None,288.7460671000299,None,right,1,0.7950274999602698,288.7460671000299,None,1,289.5664284999948,None,,,,,,,,,,,,,,,,,,,,,,,,,,,,,,,,,,,,,,,,,,,,,,,,,,,,,,,,,,,2.L,001,2021_Feb_24_1343,cal_abstract,2020.2.10,59.859485846139094,
,Fix2,stimuli/Dangerous/31.jpg,right,,,,,,,,,,,0,31,31,31,,,,,,,,,,,,,,,,,,,,,,,,,,,,,,,,,,,290.3645701999776,None,290.3645701999776,None,right,1,0.8284980000462383,290.3645701999776,None,1,291.2194441999891,None,,,,,,,,,,,,,,,,,,,,,,,,,,,,,,,,,,,,,,,,,,,,,,,,,,,,,,,,,,,2.L,001,2021_Feb_24_1343,cal_abstract,2020.2.10,59.859485846139094,
,Cond,stimuli/Small/25.jpg,left,,,,,,,,,,,0,32,32,32,,,,,,,,,,,,,,,,,,,,,,,,,,,,,,,,,,,292.0108717000112,None,292.0108717000112,None,left,1,1.0604610000154935,292.0108717000112,None,1,293.10223249997944,None,,,,,,,,,,,,,,,,,,,,,,,,,,,,,,,,,,,,,,,,,,,,,,,,,,,,,,,,,,,2.L,001,2021_Feb_24_1343,cal_abstract,2020.2.10,59.859485846139094,
,Cond,stimuli/Small/9.jpg,right,,,,,,,,,,,0,33,33,33,,,,,,,,,,,,,,,,,,,,,,,,,,,,,,,,,,,293.89378749998286,None,293.89378749998286,None,right,1,11.337332999974024,293.89378749998286,None,1,305.25930309999967,None,,,,,,,,,,,,,,,,,,,,,,,,,,,,,,,,,,,,,,,,,,,,,,,,,,,,,,,,,,,2.L,001,2021_Feb_24_1343,cal_abstract,2020.2.10,59.859485846139094,
,Fix1,stimuli/School/9.jpg,left,,,,,,,,,,,0,34,34,34,,,,,,,,,,,,,,,,,,,,,,,,,,,,,,,,,,,306.0494278999977,None,306.0494278999977,None,left,1,1.8825739999883808,306.0494278999977,None,1,307.96264209999936,None,,,,,,,,,,,,,,,,,,,,,,,,,,,,,,,,,,,,,,,,,,,,,,,,,,,,,,,,,,,2.L,001,2021_Feb_24_1343,cal_abstract,2020.2.10,59.859485846139094,
,Fix1,stimuli/School/23.jpg,left,,,,,,,,,,,0,35,35,35,,,,,,,,,,,,,,,,,,,,,,,,,,,,,,,,,,,308.7470836000284,None,308.7470836000284,None,left,1,5.964880999992602,308.7470836000284,None,1,314.73447969998233,None,,,,,,,,,,,,,,,,,,,,,,,,,,,,,,,,,,,,,,,,,,,,,,,,,,,,,,,,,,,2.L,001,2021_Feb_24_1343,cal_abstract,2020.2.10,59.859485846139094,
,Fix1,stimuli/School/54.jpg,left,,,,,,,,,,,0,36,36,36,,,,,,,,,,,,,,,,,,,,,,,,,,,,,,,,,,,315.5178912000265,None,315.5178912000265,None,left,1,3.4638477999833412,315.5178912000265,None,1,319.00269240001217,None,,,,,,,,,,,,,,,,,,,,,,,,,,,,,,,,,,,,,,,,,,,,,,,,,,,,,,,,,,,2.L,001,2021_Feb_24_1343,cal_abstract,2020.2.10,59.859485846139094,
,Cond,stimuli/Small/43.jpg,right,,,,,,,,,,,0,37,37,37,,,,,,,,,,,,,,,,,,,,,,,,,,,,,,,,,,,319.78968669997994,None,319.78968669997994,None,left,0,1.4427927000215277,319.78968669997994,None,0,321.27024420001544,None,,,,,,,,,,,,,,,,,,,,,,,,,,,,,,,,,,,,,,,,,,,,,,,,,,,,,,,,,,,2.L,001,2021_Feb_24_1343,cal_abstract,2020.2.10,59.859485846139094,
,Fix2,stimuli/Dangerous/22.jpg,right,,,,,,,,,,,0,38,38,38,,,,,,,,,,,,,,,,,,,,,,,,,,,,,,,,,,,322.0605507,None,322.0605507,None,right,1,1.751559600001201,322.0605507,None,1,323.85799350001616,None,,,,,,,,,,,,,,,,,,,,,,,,,,,,,,,,,,,,,,,,,,,,,,,,,,,,,,,,,,,2.L,001,2021_Feb_24_1343,cal_abstract,2020.2.10,59.859485846139094,
,Fix2,stimuli/Dangerous/43.jpg,right,,,,,,,,,,,0,39,39,39,,,,,,,,,,,,,,,,,,,,,,,,,,,,,,,,,,,324.6653181000147,None,324.6653181000147,None,right,1,1.0965365000301972,324.6653181000147,None,1,325.7911065000226,None,,,,,,,,,,,,,,,,,,,,,,,,,,,,,,,,,,,,,,,,,,,,,,,,,,,,,,,,,,,2.L,001,2021_Feb_24_1343,cal_abstract,2020.2.10,59.859485846139094,
,Cond,stimuli/Small/36.jpg,left,,,,,,,,,,,0,40,40,40,,,,,,,,,,,,,,,,,,,,,,,,,,,,,,,,,,,326.58641240000725,None,326.58641240000725,None,left,1,1.4857005000230856,326.58641240000725,None,1,328.09286039997824,None,,,,,,,,,,,,,,,,,,,,,,,,,,,,,,,,,,,,,,,,,,,,,,,,,,,,,,,,,,,2.L,001,2021_Feb_24_1343,cal_abstract,2020.2.10,59.859485846139094,
,Fix2,stimuli/Dangerous/38.jpg,right,,,,,,,,,,,0,41,41,41,,,,,,,,,,,,,,,,,,,,,,,,,,,,,,,,,,,328.8779259999865,None,328.8779259999865,None,right,1,1.6540263999486342,328.8779259999865,None,1,330.56165280001005,None,,,,,,,,,,,,,,,,,,,,,,,,,,,,,,,,,,,,,,,,,,,,,,,,,,,,,,,,,,,2.L,001,2021_Feb_24_1343,cal_abstract,2020.2.10,59.859485846139094,
,Fix1,stimuli/School/18.jpg,left,,,,,,,,,,,0,42,42,42,,,,,,,,,,,,,,,,,,,,,,,,,,,,,,,,,,,331.33806719997665,None,331.33806719997665,None,left,1,5.864216199959628,331.33806719997665,None,1,337.23258940002415,None,,,,,,,,,,,,,,,,,,,,,,,,,,,,,,,,,,,,,,,,,,,,,,,,,,,,,,,,,,,2.L,001,2021_Feb_24_1343,cal_abstract,2020.2.10,59.859485846139094,
,Fix1,stimuli/School/36.jpg,left,,,,,,,,,,,0,43,43,43,,,,,,,,,,,,,,,,,,,,,,,,,,,,,,,,,,,338.016651700018,None,338.016651700018,None,right,0,1.235462100012228,338.016651700018,None,0,339.29946890001884,None,,,,,,,,,,,,,,,,,,,,,,,,,,,,,,,,,,,,,,,,,,,,,,,,,,,,,,,,,,,2.L,001,2021_Feb_24_1343,cal_abstract,2020.2.10,59.859485846139094,
,Fix1,stimuli/School/48.jpg,left,,,,,,,,,,,0,44,44,44,,,,,,,,,,,,,,,,,,,,,,,,,,,,,,,,,,,340.0698093000101,None,340.0698093000101,None,left,1,5.092430200020317,340.0698093000101,None,1,345.2069355000276,None,,,,,,,,,,,,,,,,,,,,,,,,,,,,,,,,,,,,,,,,,,,,,,,,,,,,,,,,,,,2.L,001,2021_Feb_24_1343,cal_abstract,2020.2.10,59.859485846139094,
,Fix1,stimuli/School/42.jpg,left,,,,,,,,,,,0,45,45,45,,,,,,,,,,,,,,,,,,,,,,,,,,,,,,,,,,,345.9748583000037,None,345.9748583000037,None,left,1,1.7873368000146002,345.9748583000037,None,1,347.79295899998397,None,,,,,,,,,,,,,,,,,,,,,,,,,,,,,,,,,,,,,,,,,,,,,,,,,,,,,,,,,,,2.L,001,2021_Feb_24_1343,cal_abstract,2020.2.10,59.859485846139094,
,Cond,stimuli/Small/23.jpg,right,,,,,,,,,,,0,46,46,46,,,,,,,,,,,,,,,,,,,,,,,,,,,,,,,,,,,348.61781299998984,None,348.61781299998984,None,left,0,6.56514140003128,348.61781299998984,None,0,355.2285326999845,None,,,,,,,,,,,,,,,,,,,,,,,,,,,,,,,,,,,,,,,,,,,,,,,,,,,,,,,,,,,2.L,001,2021_Feb_24_1343,cal_abstract,2020.2.10,59.859485846139094,
,Cond,stimuli/Small/38.jpg,left,,,,,,,,,,,0,47,47,47,,,,,,,,,,,,,,,,,,,,,,,,,,,,,,,,,,,355.9976449999958,None,355.9976449999958,None,right,0,1.1352973000030033,355.9976449999958,None,0,357.1650203000172,None,,,,,,,,,,,,,,,,,,,,,,,,,,,,,,,,,,,,,,,,,,,,,,,,,,,,,,,,,,,2.L,001,2021_Feb_24_1343,cal_abstract,2020.2.10,59.859485846139094,
,Cond,stimuli/Small/55.jpg,right,,,,,,,,,,,0,48,48,48,,,,,,,,,,,,,,,,,,,,,,,,,,,,,,,,,,,357.94978109997464,None,357.94978109997464,None,right,1,2.3534445999539457,357.94978109997464,None,1,360.35042480000993,None,,,,,,,,,,,,,,,,,,,,,,,,,,,,,,,,,,,,,,,,,,,,,,,,,,,,,,,,,,,2.L,001,2021_Feb_24_1343,cal_abstract,2020.2.10,59.859485846139094,
,Cond,stimuli/Small/1.jpg,left,,,,,,,,,,,0,49,49,49,,,,,,,,,,,,,,,,,,,,,,,,,,,,,,,,,,,361.12589710002067,None,361.12589710002067,None,left,1,2.607196600001771,361.12589710002067,None,1,363.7671043999726,None,,,,,,,,,,,,,,,,,,,,,,,,,,,,,,,,,,,,,,,,,,,,,,,,,,,,,,,,,,,2.L,001,2021_Feb_24_1343,cal_abstract,2020.2.10,59.859485846139094,
,Fix1,stimuli/School/6.jpg,left,,,,,,,,,,,0,50,50,50,,,,,,,,,,,,,,,,,,,,,,,,,,,,,,,,,,,364.57638699997915,None,364.57638699997915,None,left,1,2.537117500032764,364.57638699997915,None,1,367.13893999997526,None,,,,,,,,,,,,,,,,,,,,,,,,,,,,,,,,,,,,,,,,,,,,,,,,,,,,,,,,,,,2.L,001,2021_Feb_24_1343,cal_abstract,2020.2.10,59.859485846139094,
,Fix2,stimuli/Dangerous/18.jpg,right,,,,,,,,,,,0,51,51,51,,,,,,,,,,,,,,,,,,,,,,,,,,,,,,,,,,,367.9211072999751,None,367.9211072999751,None,right,1,0.8322241000132635,367.9211072999751,None,1,368.78708259999985,None,,,,,,,,,,,,,,,,,,,,,,,,,,,,,,,,,,,,,,,,,,,,,,,,,,,,,,,,,,,2.L,001,2021_Feb_24_1343,cal_abstract,2020.2.10,59.859485846139094,
,Fix1,stimuli/School/1.jpg,left,,,,,,,,,,,0,52,52,52,,,,,,,,,,,,,,,,,,,,,,,,,,,,,,,,,,,369.5709077999927,None,369.5709077999927,None,left,1,1.1432730000233278,369.5709077999927,None,1,370.7391054999898,None,,,,,,,,,,,,,,,,,,,,,,,,,,,,,,,,,,,,,,,,,,,,,,,,,,,,,,,,,,,2.L,001,2021_Feb_24_1343,cal_abstract,2020.2.10,59.859485846139094,
,Cond,stimuli/Small/33.jpg,right,,,,,,,,,,,0,53,53,53,,,,,,,,,,,,,,,,,,,,,,,,,,,,,,,,,,,371.5268066999852,None,371.5268066999852,None,right,1,2.366419500031043,371.5268066999852,None,1,373.9246361000114,None,,,,,,,,,,,,,,,,,,,,,,,,,,,,,,,,,,,,,,,,,,,,,,,,,,,,,,,,,,,2.L,001,2021_Feb_24_1343,cal_abstract,2020.2.10,59.859485846139094,
,Cond,stimuli/Small/12.jpg,left,,,,,,,,,,,0,54,54,54,,,,,,,,,,,,,,,,,,,,,,,,,,,,,,,,,,,374.7117397999973,None,374.7117397999973,None,left,1,4.421674799988978,374.7117397999973,None,1,379.1606641000253,None,,,,,,,,,,,,,,,,,,,,,,,,,,,,,,,,,,,,,,,,,,,,,,,,,,,,,,,,,,,2.L,001,2021_Feb_24_1343,cal_abstract,2020.2.10,59.859485846139094,
,Cond,stimuli/Small/17.jpg,right,,,,,,,,,,,0,55,55,55,,,,,,,,,,,,,,,,,,,,,,,,,,,,,,,,,,,379.94966310000746,None,379.94966310000746,None,left,0,4.5538130000350066,379.94966310000746,None,0,384.5486837999779,None,,,,,,,,,,,,,,,,,,,,,,,,,,,,,,,,,,,,,,,,,,,,,,,,,,,,,,,,,,,2.L,001,2021_Feb_24_1343,cal_abstract,2020.2.10,59.859485846139094,
,Fix1,stimuli/School/17.jpg,left,,,,,,,,,,,0,56,56,56,,,,,,,,,,,,,,,,,,,,,,,,,,,,,,,,,,,385.31899880000856,None,385.31899880000856,None,left,1,2.3939110999926925,385.31899880000856,None,1,387.754111199989,None,,,,,,,,,,,,,,,,,,,,,,,,,,,,,,,,,,,,,,,,,,,,,,,,,,,,,,,,,,,2.L,001,2021_Feb_24_1343,cal_abstract,2020.2.10,59.859485846139094,
,Cond,stimuli/Small/11.jpg,right,,,,,,,,,,,0,57,57,57,,,,,,,,,,,,,,,,,,,,,,,,,,,,,,,,,,,388.5192163999891,None,388.5192163999891,None,right,1,2.734607700025663,388.5192163999891,None,1,391.28610999998637,None,,,,,,,,,,,,,,,,,,,,,,,,,,,,,,,,,,,,,,,,,,,,,,,,,,,,,,,,,,,2.L,001,2021_Feb_24_1343,cal_abstract,2020.2.10,59.859485846139094,
,Fix1,stimuli/School/33.jpg,left,,,,,,,,,,,0,58,58,58,,,,,,,,,,,,,,,,,,,,,,,,,,,,,,,,,,,392.0869457999943,None,392.0869457999943,None,right,0,4.227140000031795,392.0869457999943,None,0,396.356965199986,None,,,,,,,,,,,,,,,,,,,,,,,,,,,,,,,,,,,,,,,,,,,,,,,,,,,,,,,,,,,2.L,001,2021_Feb_24_1343,cal_abstract,2020.2.10,59.859485846139094,
,Cond,stimuli/Small/18.jpg,right,,,,,,,,,,,0,59,59,59,,,,,,,,,,,,,,,,,,,,,,,,,,,,,,,,,,,397.126420399989,None,397.126420399989,None,left,0,7.147631099971477,397.126420399989,None,0,404.29613779997453,None,,,,,,,,,,,,,,,,,,,,,,,,,,,,,,,,,,,,,,,,,,,,,,,,,,,,,,,,,,,2.L,001,2021_Feb_24_1343,cal_abstract,2020.2.10,59.859485846139094,
,Fix2,stimuli/Dangerous/61.jpg,right,,,,,,,,,,,0,60,60,60,,,,,,,,,,,,,,,,,,,,,,,,,,,,,,,,,,,405.08067360002315,None,405.08067360002315,None,right,1,1.0236389999627136,405.08067360002315,None,1,406.16220339998836,None,,,,,,,,,,,,,,,,,,,,,,,,,,,,,,,,,,,,,,,,,,,,,,,,,,,,,,,,,,,2.L,001,2021_Feb_24_1343,cal_abstract,2020.2.10,59.859485846139094,
,Fix2,stimuli/Dangerous/32.jpg,right,,,,,,,,,,,0,61,61,61,,,,,,,,,,,,,,,,,,,,,,,,,,,,,,,,,,,406.9535990000004,None,406.9535990000004,None,right,1,1.0806540999910794,406.9535990000004,None,1,408.064028599998,None,,,,,,,,,,,,,,,,,,,,,,,,,,,,,,,,,,,,,,,,,,,,,,,,,,,,,,,,,,,2.L,001,2021_Feb_24_1343,cal_abstract,2020.2.10,59.859485846139094,
,Fix2,stimuli/Dangerous/28.jpg,right,,,,,,,,,,,0,62,62,62,,,,,,,,,,,,,,,,,,,,,,,,,,,,,,,,,,,408.89647719997447,None,408.89647719997447,None,right,1,12.277929299976677,408.89647719997447,None,1,421.207346900017,None,,,,,,,,,,,,,,,,,,,,,,,,,,,,,,,,,,,,,,,,,,,,,,,,,,,,,,,,,,,2.L,001,2021_Feb_24_1343,cal_abstract,2020.2.10,59.859485846139094,
,Cond,stimuli/Small/16.jpg,left,,,,,,,,,,,0,63,63,63,,,,,,,,,,,,,,,,,,,,,,,,,,,,,,,,,,,421.9890161000076,None,421.9890161000076,None,left,1,29.346475199970882,421.9890161000076,None,1,451.3606877999846,None,,,,,,,,,,,,,,,,,,,,,,,,,,,,,,,,,,,,,,,,,,,,,,,,,,,,,,,,,,,2.L,001,2021_Feb_24_1343,cal_abstract,2020.2.10,59.859485846139094,
,Cond,stimuli/Small/14.jpg,right,,,,,,,,,,,0,64,64,64,,,,,,,,,,,,,,,,,,,,,,,,,,,,,,,,,,,452.1547643999802,None,452.1547643999802,None,left,0,2.0503437999868765,452.1547643999802,None,0,454.2467100999784,None,,,,,,,,,,,,,,,,,,,,,,,,,,,,,,,,,,,,,,,,,,,,,,,,,,,,,,,,,,,2.L,001,2021_Feb_24_1343,cal_abstract,2020.2.10,59.859485846139094,
,Fix2,stimuli/Dangerous/35.jpg,right,,,,,,,,,,,0,65,65,65,,,,,,,,,,,,,,,,,,,,,,,,,,,,,,,,,,,455.0881277999724,None,455.0881277999724,None,right,1,4.497414499986917,455.0881277999724,None,1,459.63421440002276,None,,,,,,,,,,,,,,,,,,,,,,,,,,,,,,,,,,,,,,,,,,,,,,,,,,,,,,,,,,,2.L,001,2021_Feb_24_1343,cal_abstract,2020.2.10,59.859485846139094,
,Fix2,stimuli/Dangerous/3.jpg,right,,,,,,,,,,,0,66,66,66,,,,,,,,,,,,,,,,,,,,,,,,,,,,,,,,,,,460.40495160000864,None,460.40495160000864,None,right,1,1.050278500013519,460.40495160000864,None,1,461.48458779999055,None,,,,,,,,,,,,,,,,,,,,,,,,,,,,,,,,,,,,,,,,,,,,,,,,,,,,,,,,,,,2.L,001,2021_Feb_24_1343,cal_abstract,2020.2.10,59.859485846139094,
,Cond,stimuli/Small/45.jpg,left,,,,,,,,,,,0,67,67,67,,,,,,,,,,,,,,,,,,,,,,,,,,,,,,,,,,,462.2875869999989,None,462.2875869999989,None,left,1,2.967234300042037,462.2875869999989,None,1,465.28630310000153,None,,,,,,,,,,,,,,,,,,,,,,,,,,,,,,,,,,,,,,,,,,,,,,,,,,,,,,,,,,,2.L,001,2021_Feb_24_1343,cal_abstract,2020.2.10,59.859485846139094,
,Fix2,stimuli/Dangerous/10.jpg,right,,,,,,,,,,,0,68,68,68,,,,,,,,,,,,,,,,,,,,,,,,,,,,,,,,,,,466.0901262999978,None,466.0901262999978,None,right,1,3.10494569997536,466.0901262999978,None,1,469.2236081000301,None,,,,,,,,,,,,,,,,,,,,,,,,,,,,,,,,,,,,,,,,,,,,,,,,,,,,,,,,,,,2.L,001,2021_Feb_24_1343,cal_abstract,2020.2.10,59.859485846139094,
,Fix2,stimuli/Dangerous/9.jpg,right,,,,,,,,,,,0,69,69,69,,,,,,,,,,,,,,,,,,,,,,,,,,,,,,,,,,,470.04095679998863,None,470.04095679998863,None,right,1,1.4242578000412323,470.04095679998863,None,1,471.4934635999962,None,,,,,,,,,,,,,,,,,,,,,,,,,,,,,,,,,,,,,,,,,,,,,,,,,,,,,,,,,,,2.L,001,2021_Feb_24_1343,cal_abstract,2020.2.10,59.859485846139094,
,Cond,stimuli/Small/31.jpg,left,,,,,,,,,,,0,70,70,70,,,,,,,,,,,,,,,,,,,,,,,,,,,,,,,,,,,472.32195239997236,None,472.32195239997236,None,left,1,4.454322899982799,472.32195239997236,None,1,476.79662570002256,None,,,,,,,,,,,,,,,,,,,,,,,,,,,,,,,,,,,,,,,,,,,,,,,,,,,,,,,,,,,2.L,001,2021_Feb_24_1343,cal_abstract,2020.2.10,59.859485846139094,
,Fix1,stimuli/School/19.jpg,left,,,,,,,,,,,0,71,71,71,,,,,,,,,,,,,,,,,,,,,,,,,,,,,,,,,,,477.5799416999798,None,477.5799416999798,None,right,0,6.515956200018991,477.5799416999798,None,0,484.1346502000233,None,,,,,,,,,,,,,,,,,,,,,,,,,,,,,,,,,,,,,,,,,,,,,,,,,,,,,,,,,,,2.L,001,2021_Feb_24_1343,cal_abstract,2020.2.10,59.859485846139094,
,Fix1,stimuli/School/11.jpg,left,,,,,,,,,,,0,72,72,72,,,,,,,,,,,,,,,,,,,,,,,,,,,,,,,,,,,484.92451149999397,None,484.92451149999397,None,left,1,3.601707299996633,484.92451149999397,None,1,488.57153279997874,None,,,,,,,,,,,,,,,,,,,,,,,,,,,,,,,,,,,,,,,,,,,,,,,,,,,,,,,,,,,2.L,001,2021_Feb_24_1343,cal_abstract,2020.2.10,59.859485846139094,
,Fix1,stimuli/School/31.jpg,left,,,,,,,,,,,0,73,73,73,,,,,,,,,,,,,,,,,,,,,,,,,,,,,,,,,,,489.3370397000108,None,489.3370397000108,None,left,1,1.6095235000248067,489.3370397000108,None,1,490.9725483999937,None,,,,,,,,,,,,,,,,,,,,,,,,,,,,,,,,,,,,,,,,,,,,,,,,,,,,,,,,,,,2.L,001,2021_Feb_24_1343,cal_abstract,2020.2.10,59.859485846139094,
,Fix1,stimuli/School/21.jpg,left,,,,,,,,,,,0,74,74,74,,,,,,,,,,,,,,,,,,,,,,,,,,,,,,,,,,,491.79008770000655,None,491.79008770000655,None,left,1,2.9660909000085667,491.79008770000655,None,1,494.7744534999947,None,,,,,,,,,,,,,,,,,,,,,,,,,,,,,,,,,,,,,,,,,,,,,,,,,,,,,,,,,,,2.L,001,2021_Feb_24_1343,cal_abstract,2020.2.10,59.859485846139094,
,Fix1,stimuli/School/55.jpg,left,,,,,,,,,,,0,75,75,75,,,,,,,,,,,,,,,,,,,,,,,,,,,,,,,,,,,495.55477089999476,None,495.55477089999476,None,left,1,9.861624800018035,495.55477089999476,None,1,505.4478364000097,None,,,,,,,,,,,,,,,,,,,,,,,,,,,,,,,,,,,,,,,,,,,,,,,,,,,,,,,,,,,2.L,001,2021_Feb_24_1343,cal_abstract,2020.2.10,59.859485846139094,
,Cond,stimuli/Small/32.jpg,right,,,,,,,,,,,0,76,76,76,,,,,,,,,,,,,,,,,,,,,,,,,,,,,,,,,,,506.2345595000079,None,506.2345595000079,None,left,0,2.6519193000276573,506.2345595000079,None,0,508.9353068000055,None,,,,,,,,,,,,,,,,,,,,,,,,,,,,,,,,,,,,,,,,,,,,,,,,,,,,,,,,,,,2.L,001,2021_Feb_24_1343,cal_abstract,2020.2.10,59.859485846139094,
,Fix2,stimuli/Dangerous/48.jpg,right,,,,,,,,,,,0,77,77,77,,,,,,,,,,,,,,,,,,,,,,,,,,,,,,,,,,,509.7507556999917,None,509.7507556999917,None,right,1,7.23530539998319,509.7507556999917,None,1,517.0248613000149,None,,,,,,,,,,,,,,,,,,,,,,,,,,,,,,,,,,,,,,,,,,,,,,,,,,,,,,,,,,,2.L,001,2021_Feb_24_1343,cal_abstract,2020.2.10,59.859485846139094,
,Cond,stimuli/Small/5.jpg,left,,,,,,,,,,,0,78,78,78,,,,,,,,,,,,,,,,,,,,,,,,,,,,,,,,,,,517.7902635000064,None,517.7902635000064,None,left,1,6.516678799991496,517.7902635000064,None,1,524.3282804000191,None,,,,,,,,,,,,,,,,,,,,,,,,,,,,,,,,,,,,,,,,,,,,,,,,,,,,,,,,,,,2.L,001,2021_Feb_24_1343,cal_abstract,2020.2.10,59.859485846139094,
,Fix1,stimuli/School/37.jpg,left,,,,,,,,,,,0,79,79,79,,,,,,,,,,,,,,,,,,,,,,,,,,,,,,,,,,,525.1081937000272,None,525.1081937000272,None,left,1,1.1090720999636687,525.1081937000272,None,1,526.2471313999849,None,,,,,,,,,,,,,,,,,,,,,,,,,,,,,,,,,,,,,,,,,,,,,,,,,,,,,,,,,,,2.L,001,2021_Feb_24_1343,cal_abstract,2020.2.10,59.859485846139094,
,Fix1,stimuli/School/27.jpg,left,,,,,,,,,,,0,80,80,80,,,,,,,,,,,,,,,,,,,,,,,,,,,,,,,,,,,527.0400989999762,None,527.0400989999762,None,left,1,14.707142499973997,527.0400989999762,None,1,541.7743870000122,None,,,,,,,,,,,,,,,,,,,,,,,,,,,,,,,,,,,,,,,,,,,,,,,,,,,,,,,,,,,2.L,001,2021_Feb_24_1343,cal_abstract,2020.2.10,59.859485846139094,
,Cond,stimuli/Small/28.jpg,right,,,,,,,,,,,0,81,81,81,,,,,,,,,,,,,,,,,,,,,,,,,,,,,,,,,,,542.6027635000064,None,542.6027635000064,None,right,1,2.434481500007678,542.6027635000064,None,1,545.0595914000296,None,,,,,,,,,,,,,,,,,,,,,,,,,,,,,,,,,,,,,,,,,,,,,,,,,,,,,,,,,,,2.L,001,2021_Feb_24_1343,cal_abstract,2020.2.10,59.859485846139094,
,Cond,stimuli/Small/30.jpg,left,,,,,,,,,,,0,82,82,82,,,,,,,,,,,,,,,,,,,,,,,,,,,,,,,,,,,545.9026944999932,None,545.9026944999932,None,right,0,15.135574000014458,545.9026944999932,None,0,561.0865013999864,None,,,,,,,,,,,,,,,,,,,,,,,,,,,,,,,,,,,,,,,,,,,,,,,,,,,,,,,,,,,2.L,001,2021_Feb_24_1343,cal_abstract,2020.2.10,59.859485846139094,
,Fix1,stimuli/School/59.jpg,left,,,,,,,,,,,0,83,83,83,,,,,,,,,,,,,,,,,,,,,,,,,,,,,,,,,,,561.8690776000149,None,561.8690776000149,None,left,1,23.399413499981165,561.8690776000149,None,1,585.3119651000015,None,,,,,,,,,,,,,,,,,,,,,,,,,,,,,,,,,,,,,,,,,,,,,,,,,,,,,,,,,,,2.L,001,2021_Feb_24_1343,cal_abstract,2020.2.10,59.859485846139094,
,Fix2,stimuli/Dangerous/7.jpg,right,,,,,,,,,,,0,84,84,84,,,,,,,,,,,,,,,,,,,,,,,,,,,,,,,,,,,586.1388156000176,None,586.1388156000176,None,right,1,20.55047509999713,586.1388156000176,None,1,606.7168806000263,None,,,,,,,,,,,,,,,,,,,,,,,,,,,,,,,,,,,,,,,,,,,,,,,,,,,,,,,,,,,2.L,001,2021_Feb_24_1343,cal_abstract,2020.2.10,59.859485846139094,
,Cond,stimuli/Small/37.jpg,left,,,,,,,,,,,0,85,85,85,,,,,,,,,,,,,,,,,,,,,,,,,,,,,,,,,,,607.5183491000207,None,607.5183491000207,None,left,1,14.171003099996597,607.5183491000207,None,1,621.7127842999762,None,,,,,,,,,,,,,,,,,,,,,,,,,,,,,,,,,,,,,,,,,,,,,,,,,,,,,,,,,,,2.L,001,2021_Feb_24_1343,cal_abstract,2020.2.10,59.859485846139094,
,Fix1,stimuli/School/13.jpg,left,,,,,,,,,,,0,86,86,86,,,,,,,,,,,,,,,,,,,,,,,,,,,,,,,,,,,622.5215568999993,None,622.5215568999993,None,left,1,18.69863090000581,622.5215568999993,None,1,641.2423575000139,None,,,,,,,,,,,,,,,,,,,,,,,,,,,,,,,,,,,,,,,,,,,,,,,,,,,,,,,,,,,2.L,001,2021_Feb_24_1343,cal_abstract,2020.2.10,59.859485846139094,
,Fix2,stimuli/Dangerous/14.jpg,right,,,,,,,,,,,0,87,87,87,,,,,,,,,,,,,,,,,,,,,,,,,,,,,,,,,,,642.0818961000186,None,642.0818961000186,None,right,1,19.688200099975802,642.0818961000186,None,1,661.7902552000014,None,,,,,,,,,,,,,,,,,,,,,,,,,,,,,,,,,,,,,,,,,,,,,,,,,,,,,,,,,,,2.L,001,2021_Feb_24_1343,cal_abstract,2020.2.10,59.859485846139094,
,Cond,stimuli/Small/50.jpg,left,,,,,,,,,,,0,88,88,88,,,,,,,,,,,,,,,,,,,,,,,,,,,,,,,,,,,662.5743546999875,None,662.5743546999875,None,left,1,18.646766800025944,662.5743546999875,None,1,681.2512106000213,None,,,,,,,,,,,,,,,,,,,,,,,,,,,,,,,,,,,,,,,,,,,,,,,,,,,,,,,,,,,2.L,001,2021_Feb_24_1343,cal_abstract,2020.2.10,59.859485846139094,
,Fix2,stimuli/Dangerous/63.jpg,right,,,,,,,,,,,0,89,89,89,,,,,,,,,,,,,,,,,,,,,,,,,,,,,,,,,,,682.0599618999986,None,682.0599618999986,None,right,1,17.432069699978456,682.0599618999986,None,1,699.5161265999777,None,,,,,,,,,,,,,,,,,,,,,,,,,,,,,,,,,,,,,,,,,,,,,,,,,,,,,,,,,,,2.L,001,2021_Feb_24_1343,cal_abstract,2020.2.10,59.859485846139094,
,Fix2,stimuli/Dangerous/0.jpg,right,,,,,,,,,,,0,90,90,90,,,,,,,,,,,,,,,,,,,,,,,,,,,,,,,,,,,700.3199994000024,None,700.3199994000024,None,right,1,19.701416299969424,700.3199994000024,None,1,720.0472297000233,None,,,,,,,,,,,,,,,,,,,,,,,,,,,,,,,,,,,,,,,,,,,,,,,,,,,,,,,,,,,2.L,001,2021_Feb_24_1343,cal_abstract,2020.2.10,59.859485846139094,
,Fix1,stimuli/School/32.jpg,left,,,,,,,,,,,0,91,91,91,,,,,,,,,,,,,,,,,,,,,,,,,,,,,,,,,,,720.8751290999935,None,720.8751290999935,None,left,1,32.39742450002814,720.8751290999935,None,1,753.3009909000248,None,,,,,,,,,,,,,,,,,,,,,,,,,,,,,,,,,,,,,,,,,,,,,,,,,,,,,,,,,,,2.L,001,2021_Feb_24_1343,cal_abstract,2020.2.10,59.859485846139094,
,Fix1,stimuli/School/29.jpg,left,,,,,,,,,,,0,92,92,92,,,,,,,,,,,,,,,,,,,,,,,,,,,,,,,,,,,754.1086612999788,None,754.1086612999788,None,left,1,35.072287100018,754.1086612999788,None,1,789.2126445000176,None,,,,,,,,,,,,,,,,,,,,,,,,,,,,,,,,,,,,,,,,,,,,,,,,,,,,,,,,,,,2.L,001,2021_Feb_24_1343,cal_abstract,2020.2.10,59.859485846139094,
,Cond,stimuli/Small/7.jpg,right,,,,,,,,,,,0,93,93,93,,,,,,,,,,,,,,,,,,,,,,,,,,,,,,,,,,,790.03702540003,None,790.03702540003,None,left,0,35.432674499985296,790.03702540003,None,0,825.5193267000141,None,,,,,,,,,,,,,,,,,,,,,,,,,,,,,,,,,,,,,,,,,,,,,,,,,,,,,,,,,,,2.L,001,2021_Feb_24_1343,cal_abstract,2020.2.10,59.859485846139094,
,Fix2,stimuli/Dangerous/19.jpg,right,,,,,,,,,,,0,94,94,94,,,,,,,,,,,,,,,,,,,,,,,,,,,,,,,,,,,826.330001400027,None,826.330001400027,None,right,1,10.649018099997193,826.330001400027,None,1,837.0286887999973,None,,,,,,,,,,,,,,,,,,,,,,,,,,,,,,,,,,,,,,,,,,,,,,,,,,,,,,,,,,,2.L,001,2021_Feb_24_1343,cal_abstract,2020.2.10,59.859485846139094,
,Cond,stimuli/Small/51.jpg,left,,,,,,,,,,,0,95,95,95,,,,,,,,,,,,,,,,,,,,,,,,,,,,,,,,,,,837.8316035000025,None,837.8316035000025,None,left,1,6.767310400027782,837.8316035000025,None,1,844.6346791000105,None,,,,,,,,,,,,,,,,,,,,,,,,,,,,,,,,,,,,,,,,,,,,,,,,,,,,,,,,,,,2.L,001,2021_Feb_24_1343,cal_abstract,2020.2.10,59.859485846139094,
,Fix2,stimuli/Dangerous/4.jpg,right,,,,,,,,,,,0,96,96,96,,,,,,,,,,,,,,,,,,,,,,,,,,,,,,,,,,,845.4638936999836,None,845.4638936999836,None,right,1,1.245065099967178,845.4638936999836,None,1,846.733781900024,None,,,,,,,,,,,,,,,,,,,,,,,,,,,,,,,,,,,,,,,,,,,,,,,,,,,,,,,,,,,2.L,001,2021_Feb_24_1343,cal_abstract,2020.2.10,59.859485846139094,
,Cond,stimuli/Small/24.jpg,left,,,,,,,,,,,0,97,97,97,,,,,,,,,,,,,,,,,,,,,,,,,,,,,,,,,,,847.5985323999776,None,847.5985323999776,None,left,1,6.530230200034566,847.5985323999776,None,1,854.1566647000145,None,,,,,,,,,,,,,,,,,,,,,,,,,,,,,,,,,,,,,,,,,,,,,,,,,,,,,,,,,,,2.L,001,2021_Feb_24_1343,cal_abstract,2020.2.10,59.859485846139094,
,Fix1,stimuli/School/58.jpg,left,,,,,,,,,,,0,98,98,98,,,,,,,,,,,,,,,,,,,,,,,,,,,,,,,,,,,854.9339202999836,None,854.9339202999836,None,right,0,1.744963800010737,854.9339202999836,None,0,856.7280259000254,None,,,,,,,,,,,,,,,,,,,,,,,,,,,,,,,,,,,,,,,,,,,,,,,,,,,,,,,,,,,2.L,001,2021_Feb_24_1343,cal_abstract,2020.2.10,59.859485846139094,
,Cond,stimuli/Small/35.jpg,right,,,,,,,,,,,0,99,99,99,,,,,,,,,,,,,,,,,,,,,,,,,,,,,,,,,,,857.4941302000079,None,857.4941302000079,None,left,0,1.4757253000279889,857.4941302000079,None,0,858.9938109000213,None,,,,,,,,,,,,,,,,,,,,,,,,,,,,,,,,,,,,,,,,,,,,,,,,,,,,,,,,,,,2.L,001,2021_Feb_24_1343,cal_abstract,2020.2.10,59.859485846139094,
,Cond,stimuli/Small/40.jpg,left,,,,,,,,,,,0,100,100,100,,,,,,,,,,,,,,,,,,,,,,,,,,,,,,,,,,,859.7652353000012,None,859.7652353000012,None,right,0,2.4437495000311173,859.7652353000012,None,0,862.2287712999969,None,,,,,,,,,,,,,,,,,,,,,,,,,,,,,,,,,,,,,,,,,,,,,,,,,,,,,,,,,,,2.L,001,2021_Feb_24_1343,cal_abstract,2020.2.10,59.859485846139094,
,Cond,stimuli/Small/3.jpg,right,,,,,,,,,,,0,101,101,101,,,,,,,,,,,,,,,,,,,,,,,,,,,,,,,,,,,863.0109283999773,None,863.0109283999773,None,left,0,7.7491378000122495,863.0109283999773,None,0,870.7831458,None,,,,,,,,,,,,,,,,,,,,,,,,,,,,,,,,,,,,,,,,,,,,,,,,,,,,,,,,,,,2.L,001,2021_Feb_24_1343,cal_abstract,2020.2.10,59.859485846139094,
,Fix1,stimuli/School/38.jpg,left,,,,,,,,,,,0,102,102,102,,,,,,,,,,,,,,,,,,,,,,,,,,,,,,,,,,,871.5668322999845,None,871.5668322999845,None,left,1,1.9042312999954447,871.5668322999845,None,1,873.5189152000239,None,,,,,,,,,,,,,,,,,,,,,,,,,,,,,,,,,,,,,,,,,,,,,,,,,,,,,,,,,,,2.L,001,2021_Feb_24_1343,cal_abstract,2020.2.10,59.859485846139094,
,Fix2,stimuli/Dangerous/26.jpg,right,,,,,,,,,,,0,103,103,103,,,,,,,,,,,,,,,,,,,,,,,,,,,,,,,,,,,874.3276659999974,None,874.3276659999974,None,right,1,1.1723128999583423,874.3276659999974,None,1,875.5218729000189,None,,,,,,,,,,,,,,,,,,,,,,,,,,,,,,,,,,,,,,,,,,,,,,,,,,,,,,,,,,,2.L,001,2021_Feb_24_1343,cal_abstract,2020.2.10,59.859485846139094,
,Fix1,stimuli/School/51.jpg,left,,,,,,,,,,,0,104,104,104,,,,,,,,,,,,,,,,,,,,,,,,,,,,,,,,,,,876.3053760000039,None,876.3053760000039,None,left,1,1.3566514999838546,876.3053760000039,None,1,877.689030700014,None,,,,,,,,,,,,,,,,,,,,,,,,,,,,,,,,,,,,,,,,,,,,,,,,,,,,,,,,,,,2.L,001,2021_Feb_24_1343,cal_abstract,2020.2.10,59.859485846139094,
,Cond,stimuli/Small/56.jpg,right,,,,,,,,,,,0,105,105,105,,,,,,,,,,,,,,,,,,,,,,,,,,,,,,,,,,,878.4688953000004,None,878.4688953000004,None,left,0,18.210945800004993,878.4688953000004,None,0,896.7225532999728,None,,,,,,,,,,,,,,,,,,,,,,,,,,,,,,,,,,,,,,,,,,,,,,,,,,,,,,,,,,,2.L,001,2021_Feb_24_1343,cal_abstract,2020.2.10,59.859485846139094,
,Cond,stimuli/Small/44.jpg,left,,,,,,,,,,,0,106,106,106,,,,,,,,,,,,,,,,,,,,,,,,,,,,,,,,,,,897.4859857999836,None,897.4859857999836,None,left,1,2.1452976999571547,897.4859857999836,None,1,899.6720444000093,None,,,,,,,,,,,,,,,,,,,,,,,,,,,,,,,,,,,,,,,,,,,,,,,,,,,,,,,,,,,2.L,001,2021_Feb_24_1343,cal_abstract,2020.2.10,59.859485846139094,
,Fix2,stimuli/Dangerous/36.jpg,right,,,,,,,,,,,0,107,107,107,,,,,,,,,,,,,,,,,,,,,,,,,,,,,,,,,,,900.4373057999765,None,900.4373057999765,None,right,1,1.0432721999823116,900.4373057999765,None,1,901.5066804999951,None,,,,,,,,,,,,,,,,,,,,,,,,,,,,,,,,,,,,,,,,,,,,,,,,,,,,,,,,,,,2.L,001,2021_Feb_24_1343,cal_abstract,2020.2.10,59.859485846139094,
,Cond,stimuli/Small/54.jpg,left,,,,,,,,,,,0,108,108,108,,,,,,,,,,,,,,,,,,,,,,,,,,,,,,,,,,,902.2975968000246,None,902.2975968000246,None,left,1,2.733041499974206,902.2975968000246,None,1,905.0560488000046,None,,,,,,,,,,,,,,,,,,,,,,,,,,,,,,,,,,,,,,,,,,,,,,,,,,,,,,,,,,,2.L,001,2021_Feb_24_1343,cal_abstract,2020.2.10,59.859485846139094,
,Fix1,stimuli/School/0.jpg,left,,,,,,,,,,,0,109,109,109,,,,,,,,,,,,,,,,,,,,,,,,,,,,,,,,,,,905.9464302000124,None,905.9464302000124,None,left,1,7.154271999956109,905.9464302000124,None,1,913.129371499992,None,,,,,,,,,,,,,,,,,,,,,,,,,,,,,,,,,,,,,,,,,,,,,,,,,,,,,,,,,,,2.L,001,2021_Feb_24_1343,cal_abstract,2020.2.10,59.859485846139094,
,Fix1,stimuli/School/57.jpg,left,,,,,,,,,,,0,110,110,110,,,,,,,,,,,,,,,,,,,,,,,,,,,,,,,,,,,913.9164545999956,None,913.9164545999956,None,right,0,6.2243234000052325,913.9164545999956,None,0,920.1818451000145,None,,,,,,,,,,,,,,,,,,,,,,,,,,,,,,,,,,,,,,,,,,,,,,,,,,,,,,,,,,,2.L,001,2021_Feb_24_1343,cal_abstract,2020.2.10,59.859485846139094,
,Fix1,stimuli/School/24.jpg,left,,,,,,,,,,,0,111,111,111,,,,,,,,,,,,,,,,,,,,,,,,,,,,,,,,,,,920.9515540000284,None,920.9515540000284,None,left,1,1.5996283999993466,920.9515540000284,None,1,922.6053837999934,None,,,,,,,,,,,,,,,,,,,,,,,,,,,,,,,,,,,,,,,,,,,,,,,,,,,,,,,,,,,2.L,001,2021_Feb_24_1343,cal_abstract,2020.2.10,59.859485846139094,
,Fix2,stimuli/Dangerous/45.jpg,right,,,,,,,,,,,0,112,112,112,,,,,,,,,,,,,,,,,,,,,,,,,,,,,,,,,,,923.3786615999998,None,923.3786615999998,None,right,1,1.4225411000079475,923.3786615999998,None,1,924.8371202999842,None,,,,,,,,,,,,,,,,,,,,,,,,,,,,,,,,,,,,,,,,,,,,,,,,,,,,,,,,,,,2.L,001,2021_Feb_24_1343,cal_abstract,2020.2.10,59.859485846139094,
,Fix2,stimuli/Dangerous/40.jpg,right,,,,,,,,,,,0,113,113,113,,,,,,,,,,,,,,,,,,,,,,,,,,,,,,,,,,,925.6306557999924,None,925.6306557999924,None,right,1,3.9902159000048414,925.6306557999924,None,1,929.6436962999869,None,,,,,,,,,,,,,,,,,,,,,,,,,,,,,,,,,,,,,,,,,,,,,,,,,,,,,,,,,,,2.L,001,2021_Feb_24_1343,cal_abstract,2020.2.10,59.859485846139094,
,Fix2,stimuli/Dangerous/39.jpg,right,,,,,,,,,,,0,114,114,114,,,,,,,,,,,,,,,,,,,,,,,,,,,,,,,,,,,930.4347364000278,None,930.4347364000278,None,right,1,2.5264965999522246,930.4347364000278,None,1,932.9922183000017,None,,,,,,,,,,,,,,,,,,,,,,,,,,,,,,,,,,,,,,,,,,,,,,,,,,,,,,,,,,,2.L,001,2021_Feb_24_1343,cal_abstract,2020.2.10,59.859485846139094,
,Cond,stimuli/Small/59.jpg,left,,,,,,,,,,,0,115,115,115,,,,,,,,,,,,,,,,,,,,,,,,,,,,,,,,,,,933.7873094999813,None,933.7873094999813,None,right,0,4.783678100036923,933.7873094999813,None,0,938.611949699989,None,,,,,,,,,,,,,,,,,,,,,,,,,,,,,,,,,,,,,,,,,,,,,,,,,,,,,,,,,,,2.L,001,2021_Feb_24_1343,cal_abstract,2020.2.10,59.859485846139094,
,Fix2,stimuli/Dangerous/21.jpg,right,,,,,,,,,,,0,116,116,116,,,,,,,,,,,,,,,,,,,,,,,,,,,,,,,,,,,939.392132900015,None,939.392132900015,None,right,1,2.3186543000047095,939.392132900015,None,1,941.7637365999981,None,,,,,,,,,,,,,,,,,,,,,,,,,,,,,,,,,,,,,,,,,,,,,,,,,,,,,,,,,,,2.L,001,2021_Feb_24_1343,cal_abstract,2020.2.10,59.859485846139094,
,Fix1,stimuli/School/15.jpg,left,,,,,,,,,,,0,117,117,117,,,,,,,,,,,,,,,,,,,,,,,,,,,,,,,,,,,942.5491188999731,None,942.5491188999731,None,left,1,10.762679500039667,942.5491188999731,None,1,953.339659499994,None,,,,,,,,,,,,,,,,,,,,,,,,,,,,,,,,,,,,,,,,,,,,,,,,,,,,,,,,,,,2.L,001,2021_Feb_24_1343,cal_abstract,2020.2.10,59.859485846139094,
,Fix1,stimuli/School/5.jpg,left,,,,,,,,,,,0,118,118,118,,,,,,,,,,,,,,,,,,,,,,,,,,,,,,,,,,,954.1206918000244,None,954.1206918000244,None,left,1,1.5613154999446124,954.1206918000244,None,1,955.7068736000219,None,,,,,,,,,,,,,,,,,,,,,,,,,,,,,,,,,,,,,,,,,,,,,,,,,,,,,,,,,,,2.L,001,2021_Feb_24_1343,cal_abstract,2020.2.10,59.859485846139094,
,Fix1,stimuli/School/46.jpg,left,,,,,,,,,,,0,119,119,119,,,,,,,,,,,,,,,,,,,,,,,,,,,,,,,,,,,956.5230665000272,None,956.5230665000272,None,left,1,2.950346699974034,956.5230665000272,None,1,959.4941510999925,None,,,,,,,,,,,,,,,,,,,,,,,,,,,,,,,,,,,,,,,,,,,,,,,,,,,,,,,,,,,2.L,001,2021_Feb_24_1343,cal_abstract,2020.2.10,59.859485846139094,
,Fix1,stimuli/School/4.jpg,left,,,,,,,,,,,0,120,120,120,,,,,,,,,,,,,,,,,,,,,,,,,,,,,,,,,,,960.2832153000054,None,960.2832153000054,None,left,1,1.6788077999954112,960.2832153000054,None,1,961.9962514999788,None,,,,,,,,,,,,,,,,,,,,,,,,,,,,,,,,,,,,,,,,,,,,,,,,,,,,,,,,,,,2.L,001,2021_Feb_24_1343,cal_abstract,2020.2.10,59.859485846139094,
,Fix2,stimuli/Dangerous/8.jpg,right,,,,,,,,,,,0,121,121,121,,,,,,,,,,,,,,,,,,,,,,,,,,,,,,,,,,,962.7786242000293,None,962.7786242000293,None,right,1,1.1734473999822512,962.7786242000293,None,1,963.9805051999865,None,,,,,,,,,,,,,,,,,,,,,,,,,,,,,,,,,,,,,,,,,,,,,,,,,,,,,,,,,,,2.L,001,2021_Feb_24_1343,cal_abstract,2020.2.10,59.859485846139094,
,Fix2,stimuli/Dangerous/17.jpg,right,,,,,,,,,,,0,122,122,122,,,,,,,,,,,,,,,,,,,,,,,,,,,,,,,,,,,964.7627984000137,None,964.7627984000137,None,right,1,1.048872500017751,964.7627984000137,None,1,965.8310249000206,None,,,,,,,,,,,,,,,,,,,,,,,,,,,,,,,,,,,,,,,,,,,,,,,,,,,,,,,,,,,2.L,001,2021_Feb_24_1343,cal_abstract,2020.2.10,59.859485846139094,
,Fix2,stimuli/Dangerous/1.jpg,right,,,,,,,,,,,0,123,123,123,,,,,,,,,,,,,,,,,,,,,,,,,,,,,,,,,,,966.6438377000159,None,966.6438377000159,None,right,1,2.638896399992518,966.6438377000159,None,1,969.3158553999965,None,,,,,,,,,,,,,,,,,,,,,,,,,,,,,,,,,,,,,,,,,,,,,,,,,,,,,,,,,,,2.L,001,2021_Feb_24_1343,cal_abstract,2020.2.10,59.859485846139094,
,Fix1,stimuli/School/3.jpg,left,,,,,,,,,,,0,124,124,124,,,,,,,,,,,,,,,,,,,,,,,,,,,,,,,,,,,970.0862503999961,None,970.0862503999961,None,left,1,1.445710700005293,970.0862503999961,None,1,971.5523222999764,None,,,,,,,,,,,,,,,,,,,,,,,,,,,,,,,,,,,,,,,,,,,,,,,,,,,,,,,,,,,2.L,001,2021_Feb_24_1343,cal_abstract,2020.2.10,59.859485846139094,
,Fix2,stimuli/Dangerous/37.jpg,right,,,,,,,,,,,0,125,125,125,,,,,,,,,,,,,,,,,,,,,,,,,,,,,,,,,,,972.3336191999842,None,972.3336191999842,None,right,1,4.218395400035661,972.3336191999842,None,1,976.5738328000298,None,,,,,,,,,,,,,,,,,,,,,,,,,,,,,,,,,,,,,,,,,,,,,,,,,,,,,,,,,,,2.L,001,2021_Feb_24_1343,cal_abstract,2020.2.10,59.859485846139094,
,Fix1,stimuli/School/22.jpg,left,,,,,,,,,,,0,126,126,126,,,,,,,,,,,,,,,,,,,,,,,,,,,,,,,,,,,977.3579041999765,None,977.3579041999765,None,left,1,3.4943813999998383,977.3579041999765,None,1,980.8766895000008,None,,,,,,,,,,,,,,,,,,,,,,,,,,,,,,,,,,,,,,,,,,,,,,,,,,,,,,,,,,,2.L,001,2021_Feb_24_1343,cal_abstract,2020.2.10,59.859485846139094,
,Fix2,stimuli/Dangerous/51.jpg,right,,,,,,,,,,,0,127,127,127,,,,,,,,,,,,,,,,,,,,,,,,,,,,,,,,,,,981.6719935000292,None,981.6719935000292,None,right,1,1.0204999999841675,981.6719935000292,None,1,982.7264725000132,None,,,,,,,,,,,,,,,,,,,,,,,,,,,,,,,,,,,,,,,,,,,,,,,,,,,,,,,,,,,2.L,001,2021_Feb_24_1343,cal_abstract,2020.2.10,59.859485846139094,
,Cond,stimuli/Small/6.jpg,left,,,,,,,,,,,0,128,128,128,,,,,,,,,,,,,,,,,,,,,,,,,,,,,,,,,,,983.5118064000271,None,983.5118064000271,None,left,1,1.7007745999726467,983.5118064000271,None,1,985.2431881999946,None,,,,,,,,,,,,,,,,,,,,,,,,,,,,,,,,,,,,,,,,,,,,,,,,,,,,,,,,,,,2.L,001,2021_Feb_24_1343,cal_abstract,2020.2.10,59.859485846139094,
,Fix1,stimuli/School/12.jpg,left,,,,,,,,,,,0,129,129,129,,,,,,,,,,,,,,,,,,,,,,,,,,,,,,,,,,,986.0043884000042,None,986.0043884000042,None,left,1,1.5873731999890879,986.0043884000042,None,1,987.6167238000198,None,,,,,,,,,,,,,,,,,,,,,,,,,,,,,,,,,,,,,,,,,,,,,,,,,,,,,,,,,,,2.L,001,2021_Feb_24_1343,cal_abstract,2020.2.10,59.859485846139094,
,Fix2,stimuli/Dangerous/13.jpg,right,,,,,,,,,,,0,130,130,130,,,,,,,,,,,,,,,,,,,,,,,,,,,,,,,,,,,988.3914610000211,None,988.3914610000211,None,right,1,0.9909042000072077,988.3914610000211,None,1,989.4135981000145,None,,,,,,,,,,,,,,,,,,,,,,,,,,,,,,,,,,,,,,,,,,,,,,,,,,,,,,,,,,,2.L,001,2021_Feb_24_1343,cal_abstract,2020.2.10,59.859485846139094,
,Fix1,stimuli/School/49.jpg,left,,,,,,,,,,,0,131,131,131,,,,,,,,,,,,,,,,,,,,,,,,,,,,,,,,,,,990.2092761999811,None,990.2092761999811,None,left,1,8.99419510003645,990.2092761999811,None,1,999.2230114000267,None,,,,,,,,,,,,,,,,,,,,,,,,,,,,,,,,,,,,,,,,,,,,,,,,,,,,,,,,,,,2.L,001,2021_Feb_24_1343,cal_abstract,2020.2.10,59.859485846139094,
,Fix2,stimuli/Dangerous/2.jpg,right,,,,,,,,,,,0,132,132,132,,,,,,,,,,,,,,,,,,,,,,,,,,,,,,,,,,,1000.0083750999765,None,1000.0083750999765,None,right,1,1.1350995000102557,1000.0083750999765,None,1,1001.1726569000166,None,,,,,,,,,,,,,,,,,,,,,,,,,,,,,,,,,,,,,,,,,,,,,,,,,,,,,,,,,,,2.L,001,2021_Feb_24_1343,cal_abstract,2020.2.10,59.859485846139094,
,Cond,stimuli/Small/52.jpg,left,,,,,,,,,,,0,133,133,133,,,,,,,,,,,,,,,,,,,,,,,,,,,,,,,,,,,1002.0394925000146,None,1002.0394925000146,None,left,1,8.533778599987272,1002.0394925000146,None,1,1010.5952290000278,None,,,,,,,,,,,,,,,,,,,,,,,,,,,,,,,,,,,,,,,,,,,,,,,,,,,,,,,,,,,2.L,001,2021_Feb_24_1343,cal_abstract,2020.2.10,59.859485846139094,
,Cond,stimuli/Small/27.jpg,right,,,,,,,,,,,0,134,134,134,,,,,,,,,,,,,,,,,,,,,,,,,,,,,,,,,,,1011.3806240999838,None,1011.3806240999838,None,right,1,9.65330190001987,1011.3806240999838,None,1,1021.0549766999902,None,,,,,,,,,,,,,,,,,,,,,,,,,,,,,,,,,,,,,,,,,,,,,,,,,,,,,,,,,,,2.L,001,2021_Feb_24_1343,cal_abstract,2020.2.10,59.859485846139094,
,Fix1,stimuli/School/41.jpg,left,,,,,,,,,,,0,135,135,135,,,,,,,,,,,,,,,,,,,,,,,,,,,,,,,,,,,1021.8378796000034,None,1021.8378796000034,None,left,1,6.345201999996789,1021.8378796000034,None,1,1028.2094997999957,None,,,,,,,,,,,,,,,,,,,,,,,,,,,,,,,,,,,,,,,,,,,,,,,,,,,,,,,,,,,2.L,001,2021_Feb_24_1343,cal_abstract,2020.2.10,59.859485846139094,
,Fix1,stimuli/School/40.jpg,left,,,,,,,,,,,0,136,136,136,,,,,,,,,,,,,,,,,,,,,,,,,,,,,,,,,,,1028.9940190999769,None,1028.9940190999769,None,right,0,3.818943999998737,1028.9940190999769,None,0,1032.85947570001,None,,,,,,,,,,,,,,,,,,,,,,,,,,,,,,,,,,,,,,,,,,,,,,,,,,,,,,,,,,,2.L,001,2021_Feb_24_1343,cal_abstract,2020.2.10,59.859485846139094,
,Fix2,stimuli/Dangerous/57.jpg,right,,,,,,,,,,,0,137,137,137,,,,,,,,,,,,,,,,,,,,,,,,,,,,,,,,,,,1033.6286546000047,None,1033.6286546000047,None,right,1,1.0144998999894597,1033.6286546000047,None,1,1034.6805381000158,None,,,,,,,,,,,,,,,,,,,,,,,,,,,,,,,,,,,,,,,,,,,,,,,,,,,,,,,,,,,2.L,001,2021_Feb_24_1343,cal_abstract,2020.2.10,59.859485846139094,
,Cond,stimuli/Small/21.jpg,left,,,,,,,,,,,0,138,138,138,,,,,,,,,,,,,,,,,,,,,,,,,,,,,,,,,,,1035.4878793000244,None,1035.4878793000244,None,left,1,1.2954589999862947,1035.4878793000244,None,1,1036.8145711999969,None,,,,,,,,,,,,,,,,,,,,,,,,,,,,,,,,,,,,,,,,,,,,,,,,,,,,,,,,,,,2.L,001,2021_Feb_24_1343,cal_abstract,2020.2.10,59.859485846139094,
,Cond,stimuli/Small/48.jpg,right,,,,,,,,,,,0,139,139,139,,,,,,,,,,,,,,,,,,,,,,,,,,,,,,,,,,,1037.6667904999922,None,1037.6667904999922,None,left,0,3.7775226999656297,1037.6667904999922,None,0,1041.4853028000216,None,,,,,,,,,,,,,,,,,,,,,,,,,,,,,,,,,,,,,,,,,,,,,,,,,,,,,,,,,,,2.L,001,2021_Feb_24_1343,cal_abstract,2020.2.10,59.859485846139094,
,Fix2,stimuli/Dangerous/12.jpg,right,,,,,,,,,,,0,140,140,140,,,,,,,,,,,,,,,,,,,,,,,,,,,,,,,,,,,1042.2405131999985,None,1042.2405131999985,None,right,1,0.8734849999891594,1042.2405131999985,None,1,1043.1526732000057,None,,,,,,,,,,,,,,,,,,,,,,,,,,,,,,,,,,,,,,,,,,,,,,,,,,,,,,,,,,,2.L,001,2021_Feb_24_1343,cal_abstract,2020.2.10,59.859485846139094,
,Fix1,stimuli/School/2.jpg,left,,,,,,,,,,,0,141,141,141,,,,,,,,,,,,,,,,,,,,,,,,,,,,,,,,,,,1043.9197813000064,None,1043.9197813000064,None,left,1,2.014093200035859,1043.9197813000064,None,1,1045.9542117000092,None,,,,,,,,,,,,,,,,,,,,,,,,,,,,,,,,,,,,,,,,,,,,,,,,,,,,,,,,,,,2.L,001,2021_Feb_24_1343,cal_abstract,2020.2.10,59.859485846139094,
,Fix1,stimuli/School/16.jpg,left,,,,,,,,,,,0,142,142,142,,,,,,,,,,,,,,,,,,,,,,,,,,,,,,,,,,,1046.742585400003,None,1046.742585400003,None,right,0,3.8524818999576382,1046.742585400003,None,0,1050.6390762000228,None,,,,,,,,,,,,,,,,,,,,,,,,,,,,,,,,,,,,,,,,,,,,,,,,,,,,,,,,,,,2.L,001,2021_Feb_24_1343,cal_abstract,2020.2.10,59.859485846139094,
,Fix2,stimuli/Dangerous/23.jpg,right,,,,,,,,,,,0,143,143,143,,,,,,,,,,,,,,,,,,,,,,,,,,,,,,,,,,,1051.4067485000123,None,1051.4067485000123,None,right,1,1.4669702000101097,1051.4067485000123,None,1,1052.9185527000227,None,,,,,,,,,,,,,,,,,,,,,,,,,,,,,,,,,,,,,,,,,,,,,,,,,,,,,,,,,,,2.L,001,2021_Feb_24_1343,cal_abstract,2020.2.10,59.859485846139094,
,Fix2,stimuli/Dangerous/5.jpg,right,,,,,,,,,,,0,144,144,144,,,,,,,,,,,,,,,,,,,,,,,,,,,,,,,,,,,1053.687666199985,None,1053.687666199985,None,right,1,0.8766598000074737,1053.687666199985,None,1,1054.5962607000256,None,,,,,,,,,,,,,,,,,,,,,,,,,,,,,,,,,,,,,,,,,,,,,,,,,,,,,,,,,,,2.L,001,2021_Feb_24_1343,cal_abstract,2020.2.10,59.859485846139094,
,Fix2,stimuli/Dangerous/56.jpg,right,,,,,,,,,,,0,145,145,145,,,,,,,,,,,,,,,,,,,,,,,,,,,,,,,,,,,1055.3827196999919,None,1055.3827196999919,None,right,1,8.701095699972939,1055.3827196999919,None,1,1064.117124499986,None,,,,,,,,,,,,,,,,,,,,,,,,,,,,,,,,,,,,,,,,,,,,,,,,,,,,,,,,,,,2.L,001,2021_Feb_24_1343,cal_abstract,2020.2.10,59.859485846139094,
,Cond,stimuli/Small/22.jpg,left,,,,,,,,,,,0,146,146,146,,,,,,,,,,,,,,,,,,,,,,,,,,,,,,,,,,,1064.8993844999932,None,1064.8993844999932,None,left,1,1.1748240999877453,1064.8993844999932,None,1,1066.1012599000242,None,,,,,,,,,,,,,,,,,,,,,,,,,,,,,,,,,,,,,,,,,,,,,,,,,,,,,,,,,,,2.L,001,2021_Feb_24_1343,cal_abstract,2020.2.10,59.859485846139094,
,Fix1,stimuli/School/7.jpg,left,,,,,,,,,,,0,147,147,147,,,,,,,,,,,,,,,,,,,,,,,,,,,,,,,,,,,1066.9055459999945,None,1066.9055459999945,None,left,1,7.568589300033636,1066.9055459999945,None,1,1074.5065315000247,None,,,,,,,,,,,,,,,,,,,,,,,,,,,,,,,,,,,,,,,,,,,,,,,,,,,,,,,,,,,2.L,001,2021_Feb_24_1343,cal_abstract,2020.2.10,59.859485846139094,
,Fix1,stimuli/School/43.jpg,left,,,,,,,,,,,0,148,148,148,,,,,,,,,,,,,,,,,,,,,,,,,,,,,,,,,,,1075.2862335999962,None,1075.2862335999962,None,left,1,3.088774600008037,1075.2862335999962,None,1,1078.4092517999816,None,,,,,,,,,,,,,,,,,,,,,,,,,,,,,,,,,,,,,,,,,,,,,,,,,,,,,,,,,,,2.L,001,2021_Feb_24_1343,cal_abstract,2020.2.10,59.859485846139094,
,Fix2,stimuli/Dangerous/27.jpg,right,,,,,,,,,,,0,149,149,149,,,,,,,,,,,,,,,,,,,,,,,,,,,,,,,,,,,1079.2457802999998,None,1079.2457802999998,None,right,1,0.8797054999740794,1079.2457802999998,None,1,1080.1436940000276,None,,,,,,,,,,,,,,,,,,,,,,,,,,,,,,,,,,,,,,,,,,,,,,,,,,,,,,,,,,,2.L,001,2021_Feb_24_1343,cal_abstract,2020.2.10,59.859485846139094,
,,,,,,,,,,,,,,,,,,,,,,,,,,,,,,,,,,,,,,,,,,,,,,,,,,,,,,,,,,,,,,,,1080.908261100005,None,c,69.54458119999617,1080.908261100005,None,,,,,,,,,,,,,,,,,,,,,,,,,,,,,,,,,,,,,,,,,,,,,,,,,,,,,2.L,001,2021_Feb_24_1343,cal_abstract,2020.2.10,59.859485846139094,
,,,,,,,,,,,,,,,,,,,,,,,,,,,,,,,,,,,,,,,,,,,,,,,,,,,,,,,,,,,,,,,,,,,,,,1150.4812234999845,None,1150.4812234999845,None,s,2.2507548999856226,1150.4812234999845,None,,,,,,,,,,,,,,,,,,,,,,,,,,,,,,,,,,,,,,,,,,,,,2.L,001,2021_Feb_24_1343,cal_abstract,2020.2.10,59.859485846139094,
,,,,Fix2,stimuli/Healthy/38.jpg,left,,,,,,,,,,,,0,0,0,0,,,,,,,,,,,,,,,,,,,,,,,,,,,,,,,,,,,,,,,,1,,,,,,,,,,,,,,,,,1152.8692294000066,None,1152.8692294000066,None,left,1,6.603127499984112,1152.8692294000066,None,1159.520199600025,None,,,,,,,,,,,,,,,,,,,,,,,,,,,,,,,,,,2.L,001,2021_Feb_24_1343,cal_abstract,2020.2.10,59.859485846139094,
,,,,Fix1,stimuli/Old/36.jpg,right,,,,,,,,,,,,0,1,1,1,,,,,,,,,,,,,,,,,,,,,,,,,,,,,,,,,,,,,,,,1,,,,,,,,,,,,,,,,,1160.3602418000228,None,1160.3602418000228,None,right,1,1.1613619000418112,1160.3602418000228,None,1161.5489534999942,None,,,,,,,,,,,,,,,,,,,,,,,,,,,,,,,,,,2.L,001,2021_Feb_24_1343,cal_abstract,2020.2.10,59.859485846139094,
,,,,Cond,stimuli/Wealth/56.jpg,left,,,,,,,,,,,,0,2,2,2,,,,,,,,,,,,,,,,,,,,,,,,,,,,,,,,,,,,,,,,1,,,,,,,,,,,,,,,,,1162.3931715000072,None,1162.3931715000072,None,left,1,1.5086069999961182,1162.3931715000072,None,1163.938074900012,None,,,,,,,,,,,,,,,,,,,,,,,,,,,,,,,,,,2.L,001,2021_Feb_24_1343,cal_abstract,2020.2.10,59.859485846139094,
,,,,Fix1,stimuli/Old/58.jpg,right,,,,,,,,,,,,0,3,3,3,,,,,,,,,,,,,,,,,,,,,,,,,,,,,,,,,,,,,,,,0,,,,,,,,,,,,,,,,,1164.7564098000294,None,1164.7564098000294,None,left,0,10.805669299967121,1164.7564098000294,None,1175.6082471000263,None,,,,,,,,,,,,,,,,,,,,,,,,,,,,,,,,,,2.L,001,2021_Feb_24_1343,cal_abstract,2020.2.10,59.859485846139094,
,,,,Fix2,stimuli/Healthy/67.jpg,left,,,,,,,,,,,,0,4,4,4,,,,,,,,,,,,,,,,,,,,,,,,,,,,,,,,,,,,,,,,1,,,,,,,,,,,,,,,,,1176.3852676000097,None,1176.3852676000097,None,left,1,1.3165580999921076,1176.3852676000097,None,1177.7499492000206,None,,,,,,,,,,,,,,,,,,,,,,,,,,,,,,,,,,2.L,001,2021_Feb_24_1343,cal_abstract,2020.2.10,59.859485846139094,
,,,,Fix1,stimuli/Old/40.jpg,right,,,,,,,,,,,,0,5,5,5,,,,,,,,,,,,,,,,,,,,,,,,,,,,,,,,,,,,,,,,0,,,,,,,,,,,,,,,,,1178.5549782000016,None,1178.5549782000016,None,left,0,1.407813400030136,1178.5549782000016,None,1180.016029499995,None,,,,,,,,,,,,,,,,,,,,,,,,,,,,,,,,,,2.L,001,2021_Feb_24_1343,cal_abstract,2020.2.10,59.859485846139094,
,,,,Fix1,stimuli/Old/55.jpg,right,,,,,,,,,,,,0,6,6,6,,,,,,,,,,,,,,,,,,,,,,,,,,,,,,,,,,,,,,,,0,,,,,,,,,,,,,,,,,1180.8048541999888,None,1180.8048541999888,None,left,0,1.3177090999670327,1180.8048541999888,None,1182.1468939000042,None,,,,,,,,,,,,,,,,,,,,,,,,,,,,,,,,,,2.L,001,2021_Feb_24_1343,cal_abstract,2020.2.10,59.859485846139094,
,,,,Fix2,stimuli/Healthy/37.jpg,left,,,,,,,,,,,,0,7,7,7,,,,,,,,,,,,,,,,,,,,,,,,,,,,,,,,,,,,,,,,1,,,,,,,,,,,,,,,,,1182.9359356000205,None,1182.9359356000205,None,left,1,1.1963013999629766,1182.9359356000205,None,1184.1711315999855,None,,,,,,,,,,,,,,,,,,,,,,,,,,,,,,,,,,2.L,001,2021_Feb_24_1343,cal_abstract,2020.2.10,59.859485846139094,
,,,,Fix2,stimuli/Healthy/13.jpg,left,,,,,,,,,,,,0,8,8,8,,,,,,,,,,,,,,,,,,,,,,,,,,,,,,,,,,,,,,,,1,,,,,,,,,,,,,,,,,1184.950258500001,None,1184.950258500001,None,left,1,1.1924687000573613,1184.950258500001,None,1186.1663980000303,None,,,,,,,,,,,,,,,,,,,,,,,,,,,,,,,,,,2.L,001,2021_Feb_24_1343,cal_abstract,2020.2.10,59.859485846139094,
,,,,Fix2,stimuli/Healthy/10.jpg,left,,,,,,,,,,,,0,9,9,9,,,,,,,,,,,,,,,,,,,,,,,,,,,,,,,,,,,,,,,,1,,,,,,,,,,,,,,,,,1186.9926058999845,None,1186.9926058999845,None,left,1,2.410031599982176,1186.9926058999845,None,1189.4356879999978,None,,,,,,,,,,,,,,,,,,,,,,,,,,,,,,,,,,2.L,001,2021_Feb_24_1343,cal_abstract,2020.2.10,59.859485846139094,
,,,,Cond,stimuli/Wealth/5.jpg,right,,,,,,,,,,,,0,10,10,10,,,,,,,,,,,,,,,,,,,,,,,,,,,,,,,,,,,,,,,,1,,,,,,,,,,,,,,,,,1190.2228419000166,None,1190.2228419000166,None,right,1,4.7898811000050046,1190.2228419000166,None,1195.0400649000076,None,,,,,,,,,,,,,,,,,,,,,,,,,,,,,,,,,,2.L,001,2021_Feb_24_1343,cal_abstract,2020.2.10,59.859485846139094,
,,,,Fix2,stimuli/Healthy/1.jpg,left,,,,,,,,,,,,0,11,11,11,,,,,,,,,,,,,,,,,,,,,,,,,,,,,,,,,,,,,,,,1,,,,,,,,,,,,,,,,,1195.8269620999927,None,1195.8269620999927,None,left,1,2.735822900023777,1195.8269620999927,None,1198.5914022999932,None,,,,,,,,,,,,,,,,,,,,,,,,,,,,,,,,,,2.L,001,2021_Feb_24_1343,cal_abstract,2020.2.10,59.859485846139094,
,,,,Fix1,stimuli/Old/20.jpg,right,,,,,,,,,,,,0,12,12,12,,,,,,,,,,,,,,,,,,,,,,,,,,,,,,,,,,,,,,,,1,,,,,,,,,,,,,,,,,1199.4043645000202,None,1199.4043645000202,None,right,1,0.8086587999714538,1199.4043645000202,None,1200.2427836999996,None,,,,,,,,,,,,,,,,,,,,,,,,,,,,,,,,,,2.L,001,2021_Feb_24_1343,cal_abstract,2020.2.10,59.859485846139094,
,,,,Fix2,stimuli/Healthy/4.jpg,left,,,,,,,,,,,,0,13,13,13,,,,,,,,,,,,,,,,,,,,,,,,,,,,,,,,,,,,,,,,1,,,,,,,,,,,,,,,,,1201.0277705999906,None,1201.0277705999906,None,left,1,1.0850113999913447,1201.0277705999906,None,1202.143171600008,None,,,,,,,,,,,,,,,,,,,,,,,,,,,,,,,,,,2.L,001,2021_Feb_24_1343,cal_abstract,2020.2.10,59.859485846139094,
,,,,Cond,stimuli/Wealth/41.jpg,right,,,,,,,,,,,,0,14,14,14,,,,,,,,,,,,,,,,,,,,,,,,,,,,,,,,,,,,,,,,0,,,,,,,,,,,,,,,,,1202.946067699988,None,1202.946067699988,None,left,0,2.4167986000538804,1202.946067699988,None,1205.413033800025,None,,,,,,,,,,,,,,,,,,,,,,,,,,,,,,,,,,2.L,001,2021_Feb_24_1343,cal_abstract,2020.2.10,59.859485846139094,
,,,,Cond,stimuli/Wealth/57.jpg,left,,,,,,,,,,,,0,15,15,15,,,,,,,,,,,,,,,,,,,,,,,,,,,,,,,,,,,,,,,,1,,,,,,,,,,,,,,,,,1206.186315800005,None,1206.186315800005,None,left,1,5.016915799991693,1206.186315800005,None,1211.2563930000179,None,,,,,,,,,,,,,,,,,,,,,,,,,,,,,,,,,,2.L,001,2021_Feb_24_1343,cal_abstract,2020.2.10,59.859485846139094,
,,,,Fix2,stimuli/Healthy/58.jpg,left,,,,,,,,,,,,0,16,16,16,,,,,,,,,,,,,,,,,,,,,,,,,,,,,,,,,,,,,,,,1,,,,,,,,,,,,,,,,,1212.0186538000125,None,1212.0186538000125,None,left,1,0.8144608000293374,1212.0186538000125,None,1212.8545183999813,None,,,,,,,,,,,,,,,,,,,,,,,,,,,,,,,,,,2.L,001,2021_Feb_24_1343,cal_abstract,2020.2.10,59.859485846139094,
,,,,Fix1,stimuli/Old/49.jpg,right,,,,,,,,,,,,0,17,17,17,,,,,,,,,,,,,,,,,,,,,,,,,,,,,,,,,,,,,,,,1,,,,,,,,,,,,,,,,,1213.6386576999794,None,1213.6386576999794,None,right,1,0.5641968999989331,1213.6386576999794,None,1214.2369310000213,None,,,,,,,,,,,,,,,,,,,,,,,,,,,,,,,,,,2.L,001,2021_Feb_24_1343,cal_abstract,2020.2.10,59.859485846139094,
,,,,Fix1,stimuli/Old/29.jpg,right,,,,,,,,,,,,0,18,18,18,,,,,,,,,,,,,,,,,,,,,,,,,,,,,,,,,,,,,,,,1,,,,,,,,,,,,,,,,,1215.0294725000276,None,1215.0294725000276,None,right,1,0.9029701999970712,1215.0294725000276,None,1215.9534188000252,None,,,,,,,,,,,,,,,,,,,,,,,,,,,,,,,,,,2.L,001,2021_Feb_24_1343,cal_abstract,2020.2.10,59.859485846139094,
,,,,Cond,stimuli/Wealth/26.jpg,left,,,,,,,,,,,,0,19,19,19,,,,,,,,,,,,,,,,,,,,,,,,,,,,,,,,,,,,,,,,1,,,,,,,,,,,,,,,,,1216.742115799978,None,1216.742115799978,None,left,1,0.4998986000427976,1216.742115799978,None,1217.267892199976,None,,,,,,,,,,,,,,,,,,,,,,,,,,,,,,,,,,2.L,001,2021_Feb_24_1343,cal_abstract,2020.2.10,59.859485846139094,
,,,,Fix1,stimuli/Old/37.jpg,right,,,,,,,,,,,,0,20,20,20,,,,,,,,,,,,,,,,,,,,,,,,,,,,,,,,,,,,,,,,1,,,,,,,,,,,,,,,,,1218.089347000001,None,1218.089347000001,None,right,1,1.1245253000524826,1218.089347000001,None,1219.2406962999958,None,,,,,,,,,,,,,,,,,,,,,,,,,,,,,,,,,,2.L,001,2021_Feb_24_1343,cal_abstract,2020.2.10,59.859485846139094,
,,,,Fix2,stimuli/Healthy/42.jpg,left,,,,,,,,,,,,0,21,21,21,,,,,,,,,,,,,,,,,,,,,,,,,,,,,,,,,,,,,,,,1,,,,,,,,,,,,,,,,,1220.0485563999973,None,1220.0485563999973,None,left,1,0.915143399965018,1220.0485563999973,None,1220.9929167000228,None,,,,,,,,,,,,,,,,,,,,,,,,,,,,,,,,,,2.L,001,2021_Feb_24_1343,cal_abstract,2020.2.10,59.859485846139094,
,,,,Fix2,stimuli/Healthy/55.jpg,left,,,,,,,,,,,,0,22,22,22,,,,,,,,,,,,,,,,,,,,,,,,,,,,,,,,,,,,,,,,0,,,,,,,,,,,,,,,,,1221.7759336999734,None,1221.7759336999734,None,right,0,0.6879230000195093,1221.7759336999734,None,1222.5090293000103,None,,,,,,,,,,,,,,,,,,,,,,,,,,,,,,,,,,2.L,001,2021_Feb_24_1343,cal_abstract,2020.2.10,59.859485846139094,
,,,,Fix1,stimuli/Old/15.jpg,right,,,,,,,,,,,,0,23,23,23,,,,,,,,,,,,,,,,,,,,,,,,,,,,,,,,,,,,,,,,0,,,,,,,,,,,,,,,,,1223.2908153000171,None,1223.2908153000171,None,left,0,0.7430344999884255,1223.2908153000171,None,1224.060839999991,None,,,,,,,,,,,,,,,,,,,,,,,,,,,,,,,,,,2.L,001,2021_Feb_24_1343,cal_abstract,2020.2.10,59.859485846139094,
,,,,Fix2,stimuli/Healthy/8.jpg,left,,,,,,,,,,,,0,24,24,24,,,,,,,,,,,,,,,,,,,,,,,,,,,,,,,,,,,,,,,,1,,,,,,,,,,,,,,,,,1224.8488279000157,None,1224.8488279000157,None,left,1,0.6246134000248276,1224.8488279000157,None,1225.514746700006,None,,,,,,,,,,,,,,,,,,,,,,,,,,,,,,,,,,2.L,001,2021_Feb_24_1343,cal_abstract,2020.2.10,59.859485846139094,
,,,,Cond,stimuli/Wealth/17.jpg,right,,,,,,,,,,,,0,25,25,25,,,,,,,,,,,,,,,,,,,,,,,,,,,,,,,,,,,,,,,,1,,,,,,,,,,,,,,,,,1226.2887332999962,None,1226.2887332999962,None,right,1,2.1153361999895424,1226.2887332999962,None,1228.4294071000186,None,,,,,,,,,,,,,,,,,,,,,,,,,,,,,,,,,,2.L,001,2021_Feb_24_1343,cal_abstract,2020.2.10,59.859485846139094,
,,,,Cond,stimuli/Wealth/27.jpg,left,,,,,,,,,,,,0,26,26,26,,,,,,,,,,,,,,,,,,,,,,,,,,,,,,,,,,,,,,,,1,,,,,,,,,,,,,,,,,1229.2082987999893,None,1229.2082987999893,None,left,1,1.2852110000094399,1229.2082987999893,None,1230.5149875999778,None,,,,,,,,,,,,,,,,,,,,,,,,,,,,,,,,,,2.L,001,2021_Feb_24_1343,cal_abstract,2020.2.10,59.859485846139094,
,,,,Cond,stimuli/Wealth/0.jpg,right,,,,,,,,,,,,0,27,27,27,,,,,,,,,,,,,,,,,,,,,,,,,,,,,,,,,,,,,,,,1,,,,,,,,,,,,,,,,,1231.315269600018,None,1231.315269600018,None,right,1,1.819791099987924,1231.315269600018,None,1233.169102600019,None,,,,,,,,,,,,,,,,,,,,,,,,,,,,,,,,,,2.L,001,2021_Feb_24_1343,cal_abstract,2020.2.10,59.859485846139094,
,,,,Fix2,stimuli/Healthy/5.jpg,left,,,,,,,,,,,,0,28,28,28,,,,,,,,,,,,,,,,,,,,,,,,,,,,,,,,,,,,,,,,0,,,,,,,,,,,,,,,,,1233.9607878000243,None,1233.9607878000243,None,right,0,2.072789700003341,1233.9607878000243,None,1236.067562000011,None,,,,,,,,,,,,,,,,,,,,,,,,,,,,,,,,,,2.L,001,2021_Feb_24_1343,cal_abstract,2020.2.10,59.859485846139094,
,,,,Fix2,stimuli/Healthy/29.jpg,left,,,,,,,,,,,,0,29,29,29,,,,,,,,,,,,,,,,,,,,,,,,,,,,,,,,,,,,,,,,0,,,,,,,,,,,,,,,,,1236.8365561999963,None,1236.8365561999963,None,right,0,1.1669926999602467,1236.8365561999963,None,1238.0349865999888,None,,,,,,,,,,,,,,,,,,,,,,,,,,,,,,,,,,2.L,001,2021_Feb_24_1343,cal_abstract,2020.2.10,59.859485846139094,
,,,,Cond,stimuli/Wealth/53.jpg,right,,,,,,,,,,,,0,30,30,30,,,,,,,,,,,,,,,,,,,,,,,,,,,,,,,,,,,,,,,,0,,,,,,,,,,,,,,,,,1238.8293717000051,None,1238.8293717000051,None,left,0,2.2844614000059664,1238.8293717000051,None,1241.1386621000129,None,,,,,,,,,,,,,,,,,,,,,,,,,,,,,,,,,,2.L,001,2021_Feb_24_1343,cal_abstract,2020.2.10,59.859485846139094,
,,,,Fix1,stimuli/Old/2.jpg,right,,,,,,,,,,,,0,31,31,31,,,,,,,,,,,,,,,,,,,,,,,,,,,,,,,,,,,,,,,,0,,,,,,,,,,,,,,,,,1241.9185659000068,None,1241.9185659000068,None,left,0,0.7952020000084303,1241.9185659000068,None,1242.7397479999927,None,,,,,,,,,,,,,,,,,,,,,,,,,,,,,,,,,,2.L,001,2021_Feb_24_1343,cal_abstract,2020.2.10,59.859485846139094,
,,,,Fix2,stimuli/Healthy/7.jpg,left,,,,,,,,,,,,0,32,32,32,,,,,,,,,,,,,,,,,,,,,,,,,,,,,,,,,,,,,,,,0,,,,,,,,,,,,,,,,,1243.524854200019,None,1243.524854200019,None,right,0,3.409768699959386,1243.524854200019,None,1246.9581153999898,None,,,,,,,,,,,,,,,,,,,,,,,,,,,,,,,,,,2.L,001,2021_Feb_24_1343,cal_abstract,2020.2.10,59.859485846139094,
,,,,Fix1,stimuli/Old/7.jpg,right,,,,,,,,,,,,0,33,33,33,,,,,,,,,,,,,,,,,,,,,,,,,,,,,,,,,,,,,,,,1,,,,,,,,,,,,,,,,,1247.7478416999802,None,1247.7478416999802,None,right,1,1.616600799956359,1247.7478416999802,None,1249.4158134000027,None,,,,,,,,,,,,,,,,,,,,,,,,,,,,,,,,,,2.L,001,2021_Feb_24_1343,cal_abstract,2020.2.10,59.859485846139094,
,,,,Cond,stimuli/Wealth/10.jpg,left,,,,,,,,,,,,0,34,34,34,,,,,,,,,,,,,,,,,,,,,,,,,,,,,,,,,,,,,,,,1,,,,,,,,,,,,,,,,,1250.1790108000278,None,1250.1790108000278,None,left,1,0.6749274000176229,1250.1790108000278,None,1250.8783549999935,None,,,,,,,,,,,,,,,,,,,,,,,,,,,,,,,,,,2.L,001,2021_Feb_24_1343,cal_abstract,2020.2.10,59.859485846139094,
,,,,Fix2,stimuli/Healthy/68.jpg,left,,,,,,,,,,,,0,35,35,35,,,,,,,,,,,,,,,,,,,,,,,,,,,,,,,,,,,,,,,,1,,,,,,,,,,,,,,,,,1251.6690442999825,None,1251.6690442999825,None,left,1,1.5741549000376835,1251.6690442999825,None,1253.2639793999842,None,,,,,,,,,,,,,,,,,,,,,,,,,,,,,,,,,,2.L,001,2021_Feb_24_1343,cal_abstract,2020.2.10,59.859485846139094,
,,,,Cond,stimuli/Wealth/24.jpg,right,,,,,,,,,,,,0,36,36,36,,,,,,,,,,,,,,,,,,,,,,,,,,,,,,,,,,,,,,,,0,,,,,,,,,,,,,,,,,1254.0498965000152,None,1254.0498965000152,None,left,0,0.9645212999894284,1254.0498965000152,None,1255.0640983000048,None,,,,,,,,,,,,,,,,,,,,,,,,,,,,,,,,,,2.L,001,2021_Feb_24_1343,cal_abstract,2020.2.10,59.859485846139094,
,,,,Cond,stimuli/Wealth/12.jpg,left,,,,,,,,,,,,0,37,37,37,,,,,,,,,,,,,,,,,,,,,,,,,,,,,,,,,,,,,,,,1,,,,,,,,,,,,,,,,,1255.8521977000055,None,1255.8521977000055,None,left,1,2.4716871000127867,1255.8521977000055,None,1258.377585500013,None,,,,,,,,,,,,,,,,,,,,,,,,,,,,,,,,,,2.L,001,2021_Feb_24_1343,cal_abstract,2020.2.10,59.859485846139094,
,,,,Fix2,stimuli/Healthy/20.jpg,left,,,,,,,,,,,,0,38,38,38,,,,,,,,,,,,,,,,,,,,,,,,,,,,,,,,,,,,,,,,0,,,,,,,,,,,,,,,,,1259.1392491000006,None,1259.1392491000006,None,right,0,0.9355202000006102,1259.1392491000006,None,1260.1192116999882,None,,,,,,,,,,,,,,,,,,,,,,,,,,,,,,,,,,2.L,001,2021_Feb_24_1343,cal_abstract,2020.2.10,59.859485846139094,
,,,,Fix2,stimuli/Healthy/44.jpg,left,,,,,,,,,,,,0,39,39,39,,,,,,,,,,,,,,,,,,,,,,,,,,,,,,,,,,,,,,,,1,,,,,,,,,,,,,,,,,1260.8893809000147,None,1260.8893809000147,None,left,1,0.6555791000137106,1260.8893809000147,None,1261.5872774000163,None,,,,,,,,,,,,,,,,,,,,,,,,,,,,,,,,,,2.L,001,2021_Feb_24_1343,cal_abstract,2020.2.10,59.859485846139094,
,,,,Fix2,stimuli/Healthy/27.jpg,left,,,,,,,,,,,,0,40,40,40,,,,,,,,,,,,,,,,,,,,,,,,,,,,,,,,,,,,,,,,1,,,,,,,,,,,,,,,,,1262.3596694000298,None,1262.3596694000298,None,left,1,0.4548360000480898,1262.3596694000298,None,1262.836267000006,None,,,,,,,,,,,,,,,,,,,,,,,,,,,,,,,,,,2.L,001,2021_Feb_24_1343,cal_abstract,2020.2.10,59.859485846139094,
,,,,Fix2,stimuli/Healthy/59.jpg,left,,,,,,,,,,,,0,41,41,41,,,,,,,,,,,,,,,,,,,,,,,,,,,,,,,,,,,,,,,,0,,,,,,,,,,,,,,,,,1263.6233038000064,None,1263.6233038000064,None,right,0,1.7918001000070944,1263.6233038000064,None,1265.4541153999744,None,,,,,,,,,,,,,,,,,,,,,,,,,,,,,,,,,,2.L,001,2021_Feb_24_1343,cal_abstract,2020.2.10,59.859485846139094,
,,,,Fix1,stimuli/Old/46.jpg,right,,,,,,,,,,,,0,42,42,42,,,,,,,,,,,,,,,,,,,,,,,,,,,,,,,,,,,,,,,,1,,,,,,,,,,,,,,,,,1266.2224815000081,None,1266.2224815000081,None,right,1,1.532388899999205,1266.2224815000081,None,1267.8088351999759,None,,,,,,,,,,,,,,,,,,,,,,,,,,,,,,,,,,2.L,001,2021_Feb_24_1343,cal_abstract,2020.2.10,59.859485846139094,
,,,,Fix2,stimuli/Healthy/39.jpg,left,,,,,,,,,,,,0,43,43,43,,,,,,,,,,,,,,,,,,,,,,,,,,,,,,,,,,,,,,,,1,,,,,,,,,,,,,,,,,1268.576356399979,None,1268.576356399979,None,left,1,0.7083496999694034,1268.576356399979,None,1269.309503299999,None,,,,,,,,,,,,,,,,,,,,,,,,,,,,,,,,,,2.L,001,2021_Feb_24_1343,cal_abstract,2020.2.10,59.859485846139094,
,,,,Fix1,stimuli/Old/38.jpg,right,,,,,,,,,,,,0,44,44,44,,,,,,,,,,,,,,,,,,,,,,,,,,,,,,,,,,,,,,,,1,,,,,,,,,,,,,,,,,1270.093906700029,None,1270.093906700029,None,right,1,2.010810199950356,1270.093906700029,None,1272.1264860000229,None,,,,,,,,,,,,,,,,,,,,,,,,,,,,,,,,,,2.L,001,2021_Feb_24_1343,cal_abstract,2020.2.10,59.859485846139094,
,,,,Fix2,stimuli/Healthy/66.jpg,left,,,,,,,,,,,,0,45,45,45,,,,,,,,,,,,,,,,,,,,,,,,,,,,,,,,,,,,,,,,1,,,,,,,,,,,,,,,,,1272.9161712999921,None,1272.9161712999921,None,left,1,1.5183805000269786,1272.9161712999921,None,1274.462439899973,None,,,,,,,,,,,,,,,,,,,,,,,,,,,,,,,,,,2.L,001,2021_Feb_24_1343,cal_abstract,2020.2.10,59.859485846139094,
,,,,Fix1,stimuli/Old/17.jpg,right,,,,,,,,,,,,0,46,46,46,,,,,,,,,,,,,,,,,,,,,,,,,,,,,,,,,,,,,,,,1,,,,,,,,,,,,,,,,,1275.2511947000166,None,1275.2511947000166,None,right,1,1.1733497999957763,1275.2511947000166,None,1276.4469937999966,None,,,,,,,,,,,,,,,,,,,,,,,,,,,,,,,,,,2.L,001,2021_Feb_24_1343,cal_abstract,2020.2.10,59.859485846139094,
,,,,Fix1,stimuli/Old/14.jpg,right,,,,,,,,,,,,0,47,47,47,,,,,,,,,,,,,,,,,,,,,,,,,,,,,,,,,,,,,,,,1,,,,,,,,,,,,,,,,,1277.2397695999825,None,1277.2397695999825,None,right,1,1.2654560999944806,1277.2397695999825,None,1278.5312409999897,None,,,,,,,,,,,,,,,,,,,,,,,,,,,,,,,,,,2.L,001,2021_Feb_24_1343,cal_abstract,2020.2.10,59.859485846139094,
,,,,Cond,stimuli/Wealth/43.jpg,left,,,,,,,,,,,,0,48,48,48,,,,,,,,,,,,,,,,,,,,,,,,,,,,,,,,,,,,,,,,1,,,,,,,,,,,,,,,,,1279.3152837000089,None,1279.3152837000089,None,left,1,0.5903513000230305,1279.3152837000089,None,1279.9318790999823,None,,,,,,,,,,,,,,,,,,,,,,,,,,,,,,,,,,2.L,001,2021_Feb_24_1343,cal_abstract,2020.2.10,59.859485846139094,
,,,,Fix2,stimuli/Healthy/41.jpg,left,,,,,,,,,,,,0,49,49,49,,,,,,,,,,,,,,,,,,,,,,,,,,,,,,,,,,,,,,,,1,,,,,,,,,,,,,,,,,1280.7257059999974,None,1280.7257059999974,None,left,1,0.8991973000229336,1280.7257059999974,None,1281.649991000013,None,,,,,,,,,,,,,,,,,,,,,,,,,,,,,,,,,,2.L,001,2021_Feb_24_1343,cal_abstract,2020.2.10,59.859485846139094,
,,,,Cond,stimuli/Wealth/40.jpg,right,,,,,,,,,,,,0,50,50,50,,,,,,,,,,,,,,,,,,,,,,,,,,,,,,,,,,,,,,,,1,,,,,,,,,,,,,,,,,1282.448748899973,None,1282.448748899973,None,right,1,1.8260207999846898,1282.448748899973,None,1284.3053981999983,None,,,,,,,,,,,,,,,,,,,,,,,,,,,,,,,,,,2.L,001,2021_Feb_24_1343,cal_abstract,2020.2.10,59.859485846139094,
,,,,Fix1,stimuli/Old/43.jpg,right,,,,,,,,,,,,0,51,51,51,,,,,,,,,,,,,,,,,,,,,,,,,,,,,,,,,,,,,,,,1,,,,,,,,,,,,,,,,,1285.0777641999885,None,1285.0777641999885,None,right,1,7.887415600009263,1285.0777641999885,None,1292.9919371000142,None,,,,,,,,,,,,,,,,,,,,,,,,,,,,,,,,,,2.L,001,2021_Feb_24_1343,cal_abstract,2020.2.10,59.859485846139094,
,,,,Cond,stimuli/Wealth/44.jpg,left,,,,,,,,,,,,0,52,52,52,,,,,,,,,,,,,,,,,,,,,,,,,,,,,,,,,,,,,,,,0,,,,,,,,,,,,,,,,,1293.7798399999738,None,1293.7798399999738,None,right,0,0.8851159000187181,1293.7798399999738,None,1294.7137836000184,None,,,,,,,,,,,,,,,,,,,,,,,,,,,,,,,,,,2.L,001,2021_Feb_24_1343,cal_abstract,2020.2.10,59.859485846139094,
,,,,Fix1,stimuli/Old/10.jpg,right,,,,,,,,,,,,0,53,53,53,,,,,,,,,,,,,,,,,,,,,,,,,,,,,,,,,,,,,,,,0,,,,,,,,,,,,,,,,,1295.4910300999763,None,1295.4910300999763,None,left,0,1.89388260000851,1295.4910300999763,None,1297.4089481999981,None,,,,,,,,,,,,,,,,,,,,,,,,,,,,,,,,,,2.L,001,2021_Feb_24_1343,cal_abstract,2020.2.10,59.859485846139094,
,,,,Fix1,stimuli/Old/3.jpg,right,,,,,,,,,,,,0,54,54,54,,,,,,,,,,,,,,,,,,,,,,,,,,,,,,,,,,,,,,,,1,,,,,,,,,,,,,,,,,1298.2075339999865,None,1298.2075339999865,None,right,1,2.951369300018996,1298.2075339999865,None,1301.1985785000143,None,,,,,,,,,,,,,,,,,,,,,,,,,,,,,,,,,,2.L,001,2021_Feb_24_1343,cal_abstract,2020.2.10,59.859485846139094,
,,,,Cond,stimuli/Wealth/13.jpg,left,,,,,,,,,,,,0,55,55,55,,,,,,,,,,,,,,,,,,,,,,,,,,,,,,,,,,,,,,,,1,,,,,,,,,,,,,,,,,1301.982730799995,None,1301.982730799995,None,left,1,0.7432170000392944,1301.982730799995,None,1302.7488459000015,None,,,,,,,,,,,,,,,,,,,,,,,,,,,,,,,,,,2.L,001,2021_Feb_24_1343,cal_abstract,2020.2.10,59.859485846139094,
,,,,Cond,stimuli/Wealth/14.jpg,right,,,,,,,,,,,,0,56,56,56,,,,,,,,,,,,,,,,,,,,,,,,,,,,,,,,,,,,,,,,0,,,,,,,,,,,,,,,,,1303.5324171999819,None,1303.5324171999819,None,left,0,0.6635420999955386,1303.5324171999819,None,1304.2304624000099,None,,,,,,,,,,,,,,,,,,,,,,,,,,,,,,,,,,2.L,001,2021_Feb_24_1343,cal_abstract,2020.2.10,59.859485846139094,
,,,,Fix2,stimuli/Healthy/65.jpg,left,,,,,,,,,,,,0,57,57,57,,,,,,,,,,,,,,,,,,,,,,,,,,,,,,,,,,,,,,,,1,,,,,,,,,,,,,,,,,1305.0080808000057,None,1305.0080808000057,None,left,1,1.037839199998416,1305.0080808000057,None,1306.082944600028,None,,,,,,,,,,,,,,,,,,,,,,,,,,,,,,,,,,2.L,001,2021_Feb_24_1343,cal_abstract,2020.2.10,59.859485846139094,
,,,,Cond,stimuli/Wealth/45.jpg,right,,,,,,,,,,,,0,58,58,58,,,,,,,,,,,,,,,,,,,,,,,,,,,,,,,,,,,,,,,,1,,,,,,,,,,,,,,,,,1306.8488971000188,None,1306.8488971000188,None,right,1,2.4071330999722704,1306.8488971000188,None,1309.2844416000298,None,,,,,,,,,,,,,,,,,,,,,,,,,,,,,,,,,,2.L,001,2021_Feb_24_1343,cal_abstract,2020.2.10,59.859485846139094,
,,,,Cond,stimuli/Wealth/31.jpg,left,,,,,,,,,,,,0,59,59,59,,,,,,,,,,,,,,,,,,,,,,,,,,,,,,,,,,,,,,,,1,,,,,,,,,,,,,,,,,1310.069873499975,None,1310.069873499975,None,left,1,1.5560837999801151,1310.069873499975,None,1311.6528925999883,None,,,,,,,,,,,,,,,,,,,,,,,,,,,,,,,,,,2.L,001,2021_Feb_24_1343,cal_abstract,2020.2.10,59.859485846139094,
,,,,Cond,stimuli/Wealth/46.jpg,right,,,,,,,,,,,,0,60,60,60,,,,,,,,,,,,,,,,,,,,,,,,,,,,,,,,,,,,,,,,1,,,,,,,,,,,,,,,,,1312.4395003999816,None,1312.4395003999816,None,right,1,0.6963626999640837,1312.4395003999816,None,1313.1545359999873,None,,,,,,,,,,,,,,,,,,,,,,,,,,,,,,,,,,2.L,001,2021_Feb_24_1343,cal_abstract,2020.2.10,59.859485846139094,
,,,,Cond,stimuli/Wealth/52.jpg,left,,,,,,,,,,,,0,61,61,61,,,,,,,,,,,,,,,,,,,,,,,,,,,,,,,,,,,,,,,,0,,,,,,,,,,,,,,,,,1313.9766073999926,None,1313.9766073999926,None,right,0,1.0093486999976449,1313.9766073999926,None,1315.0228698999854,None,,,,,,,,,,,,,,,,,,,,,,,,,,,,,,,,,,2.L,001,2021_Feb_24_1343,cal_abstract,2020.2.10,59.859485846139094,
,,,,Fix2,stimuli/Healthy/51.jpg,left,,,,,,,,,,,,0,62,62,62,,,,,,,,,,,,,,,,,,,,,,,,,,,,,,,,,,,,,,,,1,,,,,,,,,,,,,,,,,1315.8193235999788,None,1315.8193235999788,None,left,1,0.7166010999935679,1315.8193235999788,None,1316.5760173000162,None,,,,,,,,,,,,,,,,,,,,,,,,,,,,,,,,,,2.L,001,2021_Feb_24_1343,cal_abstract,2020.2.10,59.859485846139094,
,,,,Fix2,stimuli/Healthy/32.jpg,left,,,,,,,,,,,,0,63,63,63,,,,,,,,,,,,,,,,,,,,,,,,,,,,,,,,,,,,,,,,1,,,,,,,,,,,,,,,,,1317.3414407999953,None,1317.3414407999953,None,left,1,1.2852506999624893,1317.3414407999953,None,1318.6582805999788,None,,,,,,,,,,,,,,,,,,,,,,,,,,,,,,,,,,2.L,001,2021_Feb_24_1343,cal_abstract,2020.2.10,59.859485846139094,
,,,,Fix2,stimuli/Healthy/45.jpg,left,,,,,,,,,,,,0,64,64,64,,,,,,,,,,,,,,,,,,,,,,,,,,,,,,,,,,,,,,,,1,,,,,,,,,,,,,,,,,1319.443447800004,None,1319.443447800004,None,left,1,1.9821441000094637,1319.443447800004,None,1321.4588279000018,None,,,,,,,,,,,,,,,,,,,,,,,,,,,,,,,,,,2.L,001,2021_Feb_24_1343,cal_abstract,2020.2.10,59.859485846139094,
,,,,Cond,stimuli/Wealth/19.jpg,right,,,,,,,,,,,,0,65,65,65,,,,,,,,,,,,,,,,,,,,,,,,,,,,,,,,,,,,,,,,0,,,,,,,,,,,,,,,,,1322.2439551000134,None,1322.2439551000134,None,left,0,54.30400760000339,1322.2439551000134,None,1376.5920177000226,None,,,,,,,,,,,,,,,,,,,,,,,,,,,,,,,,,,2.L,001,2021_Feb_24_1343,cal_abstract,2020.2.10,59.859485846139094,
,,,,Fix1,stimuli/Old/8.jpg,right,,,,,,,,,,,,0,66,66,66,,,,,,,,,,,,,,,,,,,,,,,,,,,,,,,,,,,,,,,,1,,,,,,,,,,,,,,,,,1377.3866577000008,None,1377.3866577000008,None,right,1,2.2710747999954037,1377.3866577000008,None,1379.7061293000006,None,,,,,,,,,,,,,,,,,,,,,,,,,,,,,,,,,,2.L,001,2021_Feb_24_1343,cal_abstract,2020.2.10,59.859485846139094,
,,,,Cond,stimuli/Wealth/22.jpg,left,,,,,,,,,,,,0,67,67,67,,,,,,,,,,,,,,,,,,,,,,,,,,,,,,,,,,,,,,,,1,,,,,,,,,,,,,,,,,1380.5006627999828,None,1380.5006627999828,None,left,1,1.1867639999836683,1380.5006627999828,None,1381.718714800023,None,,,,,,,,,,,,,,,,,,,,,,,,,,,,,,,,,,2.L,001,2021_Feb_24_1343,cal_abstract,2020.2.10,59.859485846139094,
,,,,Cond,stimuli/Wealth/11.jpg,right,,,,,,,,,,,,0,68,68,68,,,,,,,,,,,,,,,,,,,,,,,,,,,,,,,,,,,,,,,,0,,,,,,,,,,,,,,,,,1382.501869299973,None,1382.501869299973,None,left,0,2.2154150000424124,1382.501869299973,None,1384.767133300018,None,,,,,,,,,,,,,,,,,,,,,,,,,,,,,,,,,,2.L,001,2021_Feb_24_1343,cal_abstract,2020.2.10,59.859485846139094,
,,,,Fix2,stimuli/Healthy/43.jpg,left,,,,,,,,,,,,0,69,69,69,,,,,,,,,,,,,,,,,,,,,,,,,,,,,,,,,,,,,,,,1,,,,,,,,,,,,,,,,,1385.5477112000226,None,1385.5477112000226,None,left,1,1.00987869995879,1385.5477112000226,None,1386.609626999998,None,,,,,,,,,,,,,,,,,,,,,,,,,,,,,,,,,,2.L,001,2021_Feb_24_1343,cal_abstract,2020.2.10,59.859485846139094,
,,,,Fix2,stimuli/Healthy/6.jpg,left,,,,,,,,,,,,0,70,70,70,,,,,,,,,,,,,,,,,,,,,,,,,,,,,,,,,,,,,,,,1,,,,,,,,,,,,,,,,,1387.3734260000056,None,1387.3734260000056,None,left,1,2.043908799998462,1387.3734260000056,None,1389.440852299973,None,,,,,,,,,,,,,,,,,,,,,,,,,,,,,,,,,,2.L,001,2021_Feb_24_1343,cal_abstract,2020.2.10,59.859485846139094,
,,,,Fix1,stimuli/Old/21.jpg,right,,,,,,,,,,,,0,71,71,71,,,,,,,,,,,,,,,,,,,,,,,,,,,,,,,,,,,,,,,,1,,,,,,,,,,,,,,,,,1390.2776738000102,None,1390.2776738000102,None,right,1,0.8896317000035197,1390.2776738000102,None,1391.1924013000098,None,,,,,,,,,,,,,,,,,,,,,,,,,,,,,,,,,,2.L,001,2021_Feb_24_1343,cal_abstract,2020.2.10,59.859485846139094,
,,,,Fix2,stimuli/Healthy/9.jpg,left,,,,,,,,,,,,0,72,72,72,,,,,,,,,,,,,,,,,,,,,,,,,,,,,,,,,,,,,,,,1,,,,,,,,,,,,,,,,,1392.008748000022,None,1392.008748000022,None,left,1,0.9488673000014387,1392.008748000022,None,1392.9773066000198,None,,,,,,,,,,,,,,,,,,,,,,,,,,,,,,,,,,2.L,001,2021_Feb_24_1343,cal_abstract,2020.2.10,59.859485846139094,
,,,,Cond,stimuli/Wealth/51.jpg,right,,,,,,,,,,,,0,73,73,73,,,,,,,,,,,,,,,,,,,,,,,,,,,,,,,,,,,,,,,,0,,,,,,,,,,,,,,,,,1393.7901386999874,None,1393.7901386999874,None,left,0,0.9275410000118427,1393.7901386999874,None,1394.7636764000054,None,,,,,,,,,,,,,,,,,,,,,,,,,,,,,,,,,,2.L,001,2021_Feb_24_1343,cal_abstract,2020.2.10,59.859485846139094,
,,,,Fix1,stimuli/Old/54.jpg,right,,,,,,,,,,,,0,74,74,74,,,,,,,,,,,,,,,,,,,,,,,,,,,,,,,,,,,,,,,,1,,,,,,,,,,,,,,,,,1395.5537716000108,None,1395.5537716000108,None,right,1,2.5934097000281326,1395.5537716000108,None,1398.1986378000001,None,,,,,,,,,,,,,,,,,,,,,,,,,,,,,,,,,,2.L,001,2021_Feb_24_1343,cal_abstract,2020.2.10,59.859485846139094,
,,,,Fix2,stimuli/Healthy/53.jpg,left,,,,,,,,,,,,0,75,75,75,,,,,,,,,,,,,,,,,,,,,,,,,,,,,,,,,,,,,,,,1,,,,,,,,,,,,,,,,,1398.967332399974,None,1398.967332399974,None,left,1,1.502313899982255,1398.967332399974,None,1400.5005440000095,None,,,,,,,,,,,,,,,,,,,,,,,,,,,,,,,,,,2.L,001,2021_Feb_24_1343,cal_abstract,2020.2.10,59.859485846139094,
,,,,Cond,stimuli/Wealth/49.jpg,right,,,,,,,,,,,,0,76,76,76,,,,,,,,,,,,,,,,,,,,,,,,,,,,,,,,,,,,,,,,0,,,,,,,,,,,,,,,,,1401.2780067999847,None,1401.2780067999847,None,left,0,1.1893574999994598,1401.2780067999847,None,1402.5157948000124,None,,,,,,,,,,,,,,,,,,,,,,,,,,,,,,,,,,2.L,001,2021_Feb_24_1343,cal_abstract,2020.2.10,59.859485846139094,
,,,,Fix1,stimuli/Old/0.jpg,right,,,,,,,,,,,,0,77,77,77,,,,,,,,,,,,,,,,,,,,,,,,,,,,,,,,,,,,,,,,1,,,,,,,,,,,,,,,,,1403.2791042000172,None,1403.2791042000172,None,right,1,1.4180424999794923,1403.2791042000172,None,1404.7352197000291,None,,,,,,,,,,,,,,,,,,,,,,,,,,,,,,,,,,2.L,001,2021_Feb_24_1343,cal_abstract,2020.2.10,59.859485846139094,
,,,,Cond,stimuli/Wealth/28.jpg,left,,,,,,,,,,,,0,78,78,78,,,,,,,,,,,,,,,,,,,,,,,,,,,,,,,,,,,,,,,,1,,,,,,,,,,,,,,,,,1405.5143225999782,None,1405.5143225999782,None,left,1,1.2330763000063598,1405.5143225999782,None,1406.7695149999927,None,,,,,,,,,,,,,,,,,,,,,,,,,,,,,,,,,,2.L,001,2021_Feb_24_1343,cal_abstract,2020.2.10,59.859485846139094,
,,,,Cond,stimuli/Wealth/20.jpg,right,,,,,,,,,,,,0,79,79,79,,,,,,,,,,,,,,,,,,,,,,,,,,,,,,,,,,,,,,,,0,,,,,,,,,,,,,,,,,1407.556468900002,None,1407.556468900002,None,left,0,1.5112941000261344,1407.556468900002,None,1409.111710999976,None,,,,,,,,,,,,,,,,,,,,,,,,,,,,,,,,,,2.L,001,2021_Feb_24_1343,cal_abstract,2020.2.10,59.859485846139094,
,,,,Fix1,stimuli/Old/47.jpg,right,,,,,,,,,,,,0,80,80,80,,,,,,,,,,,,,,,,,,,,,,,,,,,,,,,,,,,,,,,,1,,,,,,,,,,,,,,,,,1409.865837600024,None,1409.865837600024,None,right,1,2.2031719000078738,1409.865837600024,None,1412.1031092000194,None,,,,,,,,,,,,,,,,,,,,,,,,,,,,,,,,,,2.L,001,2021_Feb_24_1343,cal_abstract,2020.2.10,59.859485846139094,
,,,,Cond,stimuli/Wealth/55.jpg,left,,,,,,,,,,,,0,81,81,81,,,,,,,,,,,,,,,,,,,,,,,,,,,,,,,,,,,,,,,,1,,,,,,,,,,,,,,,,,1412.8801844000118,None,1412.8801844000118,None,left,1,0.7580811000079848,1412.8801844000118,None,1413.6591046000249,None,,,,,,,,,,,,,,,,,,,,,,,,,,,,,,,,,,2.L,001,2021_Feb_24_1343,cal_abstract,2020.2.10,59.859485846139094,
,,,,Cond,stimuli/Wealth/37.jpg,right,,,,,,,,,,,,0,82,82,82,,,,,,,,,,,,,,,,,,,,,,,,,,,,,,,,,,,,,,,,1,,,,,,,,,,,,,,,,,1414.441043000028,None,1414.441043000028,None,right,1,0.7570290999719873,1414.441043000028,None,1415.2241981999832,None,,,,,,,,,,,,,,,,,,,,,,,,,,,,,,,,,,2.L,001,2021_Feb_24_1343,cal_abstract,2020.2.10,59.859485846139094,
,,,,Fix2,stimuli/Healthy/3.jpg,left,,,,,,,,,,,,0,83,83,83,,,,,,,,,,,,,,,,,,,,,,,,,,,,,,,,,,,,,,,,1,,,,,,,,,,,,,,,,,1416.0592481999774,None,1416.0592481999774,None,left,1,0.9591153999790549,1416.0592481999774,None,1417.0433663000003,None,,,,,,,,,,,,,,,,,,,,,,,,,,,,,,,,,,2.L,001,2021_Feb_24_1343,cal_abstract,2020.2.10,59.859485846139094,
,,,,Fix1,stimuli/Old/16.jpg,right,,,,,,,,,,,,0,84,84,84,,,,,,,,,,,,,,,,,,,,,,,,,,,,,,,,,,,,,,,,1,,,,,,,,,,,,,,,,,1417.8294630000019,None,1417.8294630000019,None,right,1,0.8885381000000052,1417.8294630000019,None,1418.7446594000212,None,,,,,,,,,,,,,,,,,,,,,,,,,,,,,,,,,,2.L,001,2021_Feb_24_1343,cal_abstract,2020.2.10,59.859485846139094,
,,,,Fix2,stimuli/Healthy/33.jpg,left,,,,,,,,,,,,0,85,85,85,,,,,,,,,,,,,,,,,,,,,,,,,,,,,,,,,,,,,,,,1,,,,,,,,,,,,,,,,,1419.52628619998,None,1419.52628619998,None,left,1,0.862217599991709,1419.52628619998,None,1420.4127040000167,None,,,,,,,,,,,,,,,,,,,,,,,,,,,,,,,,,,2.L,001,2021_Feb_24_1343,cal_abstract,2020.2.10,59.859485846139094,
,,,,Fix1,stimuli/Old/48.jpg,right,,,,,,,,,,,,0,86,86,86,,,,,,,,,,,,,,,,,,,,,,,,,,,,,,,,,,,,,,,,1,,,,,,,,,,,,,,,,,1421.1952227000147,None,1421.1952227000147,None,right,1,1.0631507000070997,1421.1952227000147,None,1422.2834403999732,None,,,,,,,,,,,,,,,,,,,,,,,,,,,,,,,,,,2.L,001,2021_Feb_24_1343,cal_abstract,2020.2.10,59.859485846139094,
,,,,Fix1,stimuli/Old/39.jpg,right,,,,,,,,,,,,0,87,87,87,,,,,,,,,,,,,,,,,,,,,,,,,,,,,,,,,,,,,,,,1,,,,,,,,,,,,,,,,,1423.0641159000224,None,1423.0641159000224,None,right,1,1.3639487999607809,1423.0641159000224,None,1424.448519699974,None,,,,,,,,,,,,,,,,,,,,,,,,,,,,,,,,,,2.L,001,2021_Feb_24_1343,cal_abstract,2020.2.10,59.859485846139094,
,,,,Fix1,stimuli/Old/18.jpg,right,,,,,,,,,,,,0,88,88,88,,,,,,,,,,,,,,,,,,,,,,,,,,,,,,,,,,,,,,,,1,,,,,,,,,,,,,,,,,1425.2449789000093,None,1425.2449789000093,None,right,1,1.1930969000095502,1425.2449789000093,None,1426.4666729000164,None,,,,,,,,,,,,,,,,,,,,,,,,,,,,,,,,,,2.L,001,2021_Feb_24_1343,cal_abstract,2020.2.10,59.859485846139094,
,,,,Fix1,stimuli/Old/13.jpg,right,,,,,,,,,,,,0,89,89,89,,,,,,,,,,,,,,,,,,,,,,,,,,,,,,,,,,,,,,,,1,,,,,,,,,,,,,,,,,1427.2563547000173,None,1427.2563547000173,None,right,1,3.601851199986413,1427.2563547000173,None,1430.888215199986,None,,,,,,,,,,,,,,,,,,,,,,,,,,,,,,,,,,2.L,001,2021_Feb_24_1343,cal_abstract,2020.2.10,59.859485846139094,
,,,,Fix2,stimuli/Healthy/57.jpg,left,,,,,,,,,,,,0,90,90,90,,,,,,,,,,,,,,,,,,,,,,,,,,,,,,,,,,,,,,,,1,,,,,,,,,,,,,,,,,1431.6657087000203,None,1431.6657087000203,None,left,1,1.5026060999953188,1431.6657087000203,None,1433.1886454999913,None,,,,,,,,,,,,,,,,,,,,,,,,,,,,,,,,,,2.L,001,2021_Feb_24_1343,cal_abstract,2020.2.10,59.859485846139094,
,,,,Fix2,stimuli/Healthy/19.jpg,left,,,,,,,,,,,,0,91,91,91,,,,,,,,,,,,,,,,,,,,,,,,,,,,,,,,,,,,,,,,1,,,,,,,,,,,,,,,,,1433.969557799981,None,1433.969557799981,None,left,1,1.04818250000244,1433.969557799981,None,1435.0379821999813,None,,,,,,,,,,,,,,,,,,,,,,,,,,,,,,,,,,2.L,001,2021_Feb_24_1343,cal_abstract,2020.2.10,59.859485846139094,
,,,,Fix2,stimuli/Healthy/21.jpg,left,,,,,,,,,,,,0,92,92,92,,,,,,,,,,,,,,,,,,,,,,,,,,,,,,,,,,,,,,,,1,,,,,,,,,,,,,,,,,1435.8537142000278,None,1435.8537142000278,None,left,1,1.134867100045085,1435.8537142000278,None,1437.0075988000026,None,,,,,,,,,,,,,,,,,,,,,,,,,,,,,,,,,,2.L,001,2021_Feb_24_1343,cal_abstract,2020.2.10,59.859485846139094,
,,,,Fix2,stimuli/Healthy/0.jpg,left,,,,,,,,,,,,0,93,93,93,,,,,,,,,,,,,,,,,,,,,,,,,,,,,,,,,,,,,,,,1,,,,,,,,,,,,,,,,,1437.827111200022,None,1437.827111200022,None,left,1,1.451293199963402,1437.827111200022,None,1439.3071712999954,None,,,,,,,,,,,,,,,,,,,,,,,,,,,,,,,,,,2.L,001,2021_Feb_24_1343,cal_abstract,2020.2.10,59.859485846139094,
,,,,Fix1,stimuli/Old/35.jpg,right,,,,,,,,,,,,0,94,94,94,,,,,,,,,,,,,,,,,,,,,,,,,,,,,,,,,,,,,,,,1,,,,,,,,,,,,,,,,,1440.1012260999996,None,1440.1012260999996,None,right,1,0.9272423000074923,1440.1012260999996,None,1441.0589945000247,None,,,,,,,,,,,,,,,,,,,,,,,,,,,,,,,,,,2.L,001,2021_Feb_24_1343,cal_abstract,2020.2.10,59.859485846139094,
,,,,Fix2,stimuli/Healthy/56.jpg,left,,,,,,,,,,,,0,95,95,95,,,,,,,,,,,,,,,,,,,,,,,,,,,,,,,,,,,,,,,,1,,,,,,,,,,,,,,,,,1441.8435822000029,None,1441.8435822000029,None,left,1,1.2545991000370122,1441.8435822000029,None,1443.1266437000013,None,,,,,,,,,,,,,,,,,,,,,,,,,,,,,,,,,,2.L,001,2021_Feb_24_1343,cal_abstract,2020.2.10,59.859485846139094,
,,,,Cond,stimuli/Wealth/35.jpg,right,,,,,,,,,,,,0,96,96,96,,,,,,,,,,,,,,,,,,,,,,,,,,,,,,,,,,,,,,,,0,,,,,,,,,,,,,,,,,1443.9576084000291,None,1443.9576084000291,None,left,0,1.2509818999678828,1443.9576084000291,None,1445.2529529000167,None,,,,,,,,,,,,,,,,,,,,,,,,,,,,,,,,,,2.L,001,2021_Feb_24_1343,cal_abstract,2020.2.10,59.859485846139094,
,,,,Fix1,stimuli/Old/23.jpg,right,,,,,,,,,,,,0,97,97,97,,,,,,,,,,,,,,,,,,,,,,,,,,,,,,,,,,,,,,,,1,,,,,,,,,,,,,,,,,1446.0137919000117,None,1446.0137919000117,None,right,1,1.49435250001261,1446.0137919000117,None,1447.5494380000164,None,,,,,,,,,,,,,,,,,,,,,,,,,,,,,,,,,,2.L,001,2021_Feb_24_1343,cal_abstract,2020.2.10,59.859485846139094,
,,,,Cond,stimuli/Wealth/42.jpg,left,,,,,,,,,,,,0,98,98,98,,,,,,,,,,,,,,,,,,,,,,,,,,,,,,,,,,,,,,,,0,,,,,,,,,,,,,,,,,1448.3211031000246,None,1448.3211031000246,None,right,0,1.0175849999650382,1448.3211031000246,None,1449.3798599999864,None,,,,,,,,,,,,,,,,,,,,,,,,,,,,,,,,,,2.L,001,2021_Feb_24_1343,cal_abstract,2020.2.10,59.859485846139094,
,,,,Fix2,stimuli/Healthy/24.jpg,left,,,,,,,,,,,,0,99,99,99,,,,,,,,,,,,,,,,,,,,,,,,,,,,,,,,,,,,,,,,1,,,,,,,,,,,,,,,,,1450.168165799987,None,1450.168165799987,None,left,1,0.8014192000264302,1450.168165799987,None,1451.017511699989,None,,,,,,,,,,,,,,,,,,,,,,,,,,,,,,,,,,2.L,001,2021_Feb_24_1343,cal_abstract,2020.2.10,59.859485846139094,
,,,,Cond,stimuli/Wealth/54.jpg,right,,,,,,,,,,,,0,100,100,100,,,,,,,,,,,,,,,,,,,,,,,,,,,,,,,,,,,,,,,,0,,,,,,,,,,,,,,,,,1451.8249742999906,None,1451.8249742999906,None,left,0,1.1245018999907188,1451.8249742999906,None,1452.9849112000084,None,,,,,,,,,,,,,,,,,,,,,,,,,,,,,,,,,,2.L,001,2021_Feb_24_1343,cal_abstract,2020.2.10,59.859485846139094,
,,,,Cond,stimuli/Wealth/4.jpg,left,,,,,,,,,,,,0,101,101,101,,,,,,,,,,,,,,,,,,,,,,,,,,,,,,,,,,,,,,,,1,,,,,,,,,,,,,,,,,1453.751468900009,None,1453.751468900009,None,left,1,4.047827899979893,1453.751468900009,None,1457.841247799981,None,,,,,,,,,,,,,,,,,,,,,,,,,,,,,,,,,,2.L,001,2021_Feb_24_1343,cal_abstract,2020.2.10,59.859485846139094,
,,,,Fix2,stimuli/Healthy/48.jpg,left,,,,,,,,,,,,0,102,102,102,,,,,,,,,,,,,,,,,,,,,,,,,,,,,,,,,,,,,,,,1,,,,,,,,,,,,,,,,,1458.6047828000155,None,1458.6047828000155,None,left,1,0.9543854999938048,1458.6047828000155,None,1459.5919925000053,None,,,,,,,,,,,,,,,,,,,,,,,,,,,,,,,,,,2.L,001,2021_Feb_24_1343,cal_abstract,2020.2.10,59.859485846139094,
,,,,Fix2,stimuli/Healthy/15.jpg,left,,,,,,,,,,,,0,103,103,103,,,,,,,,,,,,,,,,,,,,,,,,,,,,,,,,,,,,,,,,1,,,,,,,,,,,,,,,,,1460.3848097000155,None,1460.3848097000155,None,left,1,0.7743099999497645,1460.3848097000155,None,1461.18951679999,None,,,,,,,,,,,,,,,,,,,,,,,,,,,,,,,,,,2.L,001,2021_Feb_24_1343,cal_abstract,2020.2.10,59.859485846139094,
,,,,Cond,stimuli/Wealth/38.jpg,right,,,,,,,,,,,,0,104,104,104,,,,,,,,,,,,,,,,,,,,,,,,,,,,,,,,,,,,,,,,0,,,,,,,,,,,,,,,,,1461.9671177000273,None,1461.9671177000273,None,left,0,5.333247900009155,1461.9671177000273,None,1467.3457424999797,None,,,,,,,,,,,,,,,,,,,,,,,,,,,,,,,,,,2.L,001,2021_Feb_24_1343,cal_abstract,2020.2.10,59.859485846139094,
,,,,Cond,stimuli/Wealth/21.jpg,left,,,,,,,,,,,,0,105,105,105,,,,,,,,,,,,,,,,,,,,,,,,,,,,,,,,,,,,,,,,1,,,,,,,,,,,,,,,,,1468.110411599977,None,1468.110411599977,None,left,1,16.109236899996176,1468.110411599977,None,1484.25805340003,None,,,,,,,,,,,,,,,,,,,,,,,,,,,,,,,,,,2.L,001,2021_Feb_24_1343,cal_abstract,2020.2.10,59.859485846139094,
,,,,Fix2,stimuli/Healthy/36.jpg,left,,,,,,,,,,,,0,106,106,106,,,,,,,,,,,,,,,,,,,,,,,,,,,,,,,,,,,,,,,,1,,,,,,,,,,,,,,,,,1485.0290791000007,None,1485.0290791000007,None,left,1,0.9600346000515856,1485.0290791000007,None,1486.007733699982,None,,,,,,,,,,,,,,,,,,,,,,,,,,,,,,,,,,2.L,001,2021_Feb_24_1343,cal_abstract,2020.2.10,59.859485846139094,
,,,,Fix1,stimuli/Old/12.jpg,right,,,,,,,,,,,,0,107,107,107,,,,,,,,,,,,,,,,,,,,,,,,,,,,,,,,,,,,,,,,1,,,,,,,,,,,,,,,,,1486.7927119000233,None,1486.7927119000233,None,right,1,1.9563327000360005,1486.7927119000233,None,1488.775542700023,None,,,,,,,,,,,,,,,,,,,,,,,,,,,,,,,,,,2.L,001,2021_Feb_24_1343,cal_abstract,2020.2.10,59.859485846139094,
,,,,Fix2,stimuli/Healthy/69.jpg,left,,,,,,,,,,,,0,108,108,108,,,,,,,,,,,,,,,,,,,,,,,,,,,,,,,,,,,,,,,,1,,,,,,,,,,,,,,,,,1489.5584343000082,None,1489.5584343000082,None,left,1,1.5607964000082575,1489.5584343000082,None,1491.1522664999939,None,,,,,,,,,,,,,,,,,,,,,,,,,,,,,,,,,,2.L,001,2021_Feb_24_1343,cal_abstract,2020.2.10,59.859485846139094,
,,,,Fix2,stimuli/Healthy/30.jpg,left,,,,,,,,,,,,0,109,109,109,,,,,,,,,,,,,,,,,,,,,,,,,,,,,,,,,,,,,,,,1,,,,,,,,,,,,,,,,,1491.91928620002,None,1491.91928620002,None,left,1,1.731356300006155,1491.91928620002,None,1493.678888000024,None,,,,,,,,,,,,,,,,,,,,,,,,,,,,,,,,,,2.L,001,2021_Feb_24_1343,cal_abstract,2020.2.10,59.859485846139094,
,,,,Cond,stimuli/Wealth/23.jpg,right,,,,,,,,,,,,0,110,110,110,,,,,,,,,,,,,,,,,,,,,,,,,,,,,,,,,,,,,,,,1,,,,,,,,,,,,,,,,,1494.4606068999856,None,1494.4606068999856,None,right,1,1.5497870999970473,1494.4606068999856,None,1496.030301699997,None,,,,,,,,,,,,,,,,,,,,,,,,,,,,,,,,,,2.L,001,2021_Feb_24_1343,cal_abstract,2020.2.10,59.859485846139094,
,,,,Fix1,stimuli/Old/9.jpg,right,,,,,,,,,,,,0,111,111,111,,,,,,,,,,,,,,,,,,,,,,,,,,,,,,,,,,,,,,,,1,,,,,,,,,,,,,,,,,1496.8135670999764,None,1496.8135670999764,None,right,1,1.9369762999704108,1496.8135670999764,None,1498.781537999981,None,,,,,,,,,,,,,,,,,,,,,,,,,,,,,,,,,,2.L,001,2021_Feb_24_1343,cal_abstract,2020.2.10,59.859485846139094,
,,,,Fix1,stimuli/Old/50.jpg,right,,,,,,,,,,,,0,112,112,112,,,,,,,,,,,,,,,,,,,,,,,,,,,,,,,,,,,,,,,,1,,,,,,,,,,,,,,,,,1499.5662956999731,None,1499.5662956999731,None,right,1,1.9738559999968857,1499.5662956999731,None,1501.566164400021,None,,,,,,,,,,,,,,,,,,,,,,,,,,,,,,,,,,2.L,001,2021_Feb_24_1343,cal_abstract,2020.2.10,59.859485846139094,
,,,,Fix1,stimuli/Old/5.jpg,right,,,,,,,,,,,,0,113,113,113,,,,,,,,,,,,,,,,,,,,,,,,,,,,,,,,,,,,,,,,0,,,,,,,,,,,,,,,,,1502.3605409000302,None,1502.3605409000302,None,left,0,2.200199300015811,1502.3605409000302,None,1504.6042835999979,None,,,,,,,,,,,,,,,,,,,,,,,,,,,,,,,,,,2.L,001,2021_Feb_24_1343,cal_abstract,2020.2.10,59.859485846139094,
,,,,Fix1,stimuli/Old/57.jpg,right,,,,,,,,,,,,0,114,114,114,,,,,,,,,,,,,,,,,,,,,,,,,,,,,,,,,,,,,,,,1,,,,,,,,,,,,,,,,,1505.3703273999854,None,1505.3703273999854,None,right,1,0.9200122999609448,1505.3703273999854,None,1506.3373435999965,None,,,,,,,,,,,,,,,,,,,,,,,,,,,,,,,,,,2.L,001,2021_Feb_24_1343,cal_abstract,2020.2.10,59.859485846139094,
,,,,Cond,stimuli/Wealth/15.jpg,left,,,,,,,,,,,,0,115,115,115,,,,,,,,,,,,,,,,,,,,,,,,,,,,,,,,,,,,,,,,0,,,,,,,,,,,,,,,,,1507.1191894999938,None,1507.1191894999938,None,right,0,2.161930600006599,1507.1191894999938,None,1509.3237538000103,None,,,,,,,,,,,,,,,,,,,,,,,,,,,,,,,,,,2.L,001,2021_Feb_24_1343,cal_abstract,2020.2.10,59.859485846139094,
,,,,Fix1,stimuli/Old/26.jpg,right,,,,,,,,,,,,0,116,116,116,,,,,,,,,,,,,,,,,,,,,,,,,,,,,,,,,,,,,,,,1,,,,,,,,,,,,,,,,,1510.0939088999876,None,1510.0939088999876,None,right,1,4.3863389999605715,1510.0939088999876,None,1514.5282232000027,None,,,,,,,,,,,,,,,,,,,,,,,,,,,,,,,,,,2.L,001,2021_Feb_24_1343,cal_abstract,2020.2.10,59.859485846139094,
,,,,Cond,stimuli/Wealth/47.jpg,left,,,,,,,,,,,,0,117,117,117,,,,,,,,,,,,,,,,,,,,,,,,,,,,,,,,,,,,,,,,1,,,,,,,,,,,,,,,,,1515.292237000016,None,1515.292237000016,None,left,1,3.1981025999994017,1515.292237000016,None,1518.5129918999737,None,,,,,,,,,,,,,,,,,,,,,,,,,,,,,,,,,,2.L,001,2021_Feb_24_1343,cal_abstract,2020.2.10,59.859485846139094,
,,,,Cond,stimuli/Wealth/30.jpg,right,,,,,,,,,,,,0,118,118,118,,,,,,,,,,,,,,,,,,,,,,,,,,,,,,,,,,,,,,,,1,,,,,,,,,,,,,,,,,1519.3005059999996,None,1519.3005059999996,None,right,1,1.559503099997528,1519.3005059999996,None,1520.8827319000266,None,,,,,,,,,,,,,,,,,,,,,,,,,,,,,,,,,,2.L,001,2021_Feb_24_1343,cal_abstract,2020.2.10,59.859485846139094,
,,,,Cond,stimuli/Wealth/36.jpg,left,,,,,,,,,,,,0,119,119,119,,,,,,,,,,,,,,,,,,,,,,,,,,,,,,,,,,,,,,,,1,,,,,,,,,,,,,,,,,1521.6672781999805,None,1521.6672781999805,None,left,1,0.8831068999716081,1521.6672781999805,None,1522.5813478999771,None,,,,,,,,,,,,,,,,,,,,,,,,,,,,,,,,,,2.L,001,2021_Feb_24_1343,cal_abstract,2020.2.10,59.859485846139094,
,,,,Fix1,stimuli/Old/11.jpg,right,,,,,,,,,,,,0,120,120,120,,,,,,,,,,,,,,,,,,,,,,,,,,,,,,,,,,,,,,,,1,,,,,,,,,,,,,,,,,1523.392723899975,None,1523.392723899975,None,right,1,2.7677390999742784,1523.392723899975,None,1526.183754800004,None,,,,,,,,,,,,,,,,,,,,,,,,,,,,,,,,,,2.L,001,2021_Feb_24_1343,cal_abstract,2020.2.10,59.859485846139094,
,,,,Cond,stimuli/Wealth/34.jpg,left,,,,,,,,,,,,0,121,121,121,,,,,,,,,,,,,,,,,,,,,,,,,,,,,,,,,,,,,,,,1,,,,,,,,,,,,,,,,,1527.034021999978,None,1527.034021999978,None,left,1,0.9162444000248797,1527.034021999978,None,1527.9691895000287,None,,,,,,,,,,,,,,,,,,,,,,,,,,,,,,,,,,2.L,001,2021_Feb_24_1343,cal_abstract,2020.2.10,59.859485846139094,
,,,,Fix2,stimuli/Healthy/46.jpg,left,,,,,,,,,,,,0,122,122,122,,,,,,,,,,,,,,,,,,,,,,,,,,,,,,,,,,,,,,,,1,,,,,,,,,,,,,,,,,1528.7498037000187,None,1528.7498037000187,None,left,1,1.2307340999832377,1528.7498037000187,None,1530.003295100003,None,,,,,,,,,,,,,,,,,,,,,,,,,,,,,,,,,,2.L,001,2021_Feb_24_1343,cal_abstract,2020.2.10,59.859485846139094,
,,,,Fix1,stimuli/Old/32.jpg,right,,,,,,,,,,,,0,123,123,123,,,,,,,,,,,,,,,,,,,,,,,,,,,,,,,,,,,,,,,,1,,,,,,,,,,,,,,,,,1530.859563999984,None,1530.859563999984,None,right,1,0.950994000013452,1530.859563999984,None,1531.840014800022,None,,,,,,,,,,,,,,,,,,,,,,,,,,,,,,,,,,2.L,001,2021_Feb_24_1343,cal_abstract,2020.2.10,59.859485846139094,
,,,,Cond,stimuli/Wealth/48.jpg,left,,,,,,,,,,,,0,124,124,124,,,,,,,,,,,,,,,,,,,,,,,,,,,,,,,,,,,,,,,,1,,,,,,,,,,,,,,,,,1532.6397518999875,None,1532.6397518999875,None,left,1,1.6918662000098266,1532.6397518999875,None,1534.3586424000096,None,,,,,,,,,,,,,,,,,,,,,,,,,,,,,,,,,,2.L,001,2021_Feb_24_1343,cal_abstract,2020.2.10,59.859485846139094,
,,,,Fix1,stimuli/Old/27.jpg,right,,,,,,,,,,,,0,125,125,125,,,,,,,,,,,,,,,,,,,,,,,,,,,,,,,,,,,,,,,,1,,,,,,,,,,,,,,,,,1535.1475466000265,None,1535.1475466000265,None,right,1,0.9638583000050858,1535.1475466000265,None,1536.140896899975,None,,,,,,,,,,,,,,,,,,,,,,,,,,,,,,,,,,2.L,001,2021_Feb_24_1343,cal_abstract,2020.2.10,59.859485846139094,
,,,,Cond,stimuli/Wealth/29.jpg,left,,,,,,,,,,,,0,126,126,126,,,,,,,,,,,,,,,,,,,,,,,,,,,,,,,,,,,,,,,,1,,,,,,,,,,,,,,,,,1536.9219395000255,None,1536.9219395000255,None,left,1,0.9692153999931179,1536.9219395000255,None,1537.9247258999967,None,,,,,,,,,,,,,,,,,,,,,,,,,,,,,,,,,,2.L,001,2021_Feb_24_1343,cal_abstract,2020.2.10,59.859485846139094,
,,,,Fix1,stimuli/Old/42.jpg,right,,,,,,,,,,,,0,127,127,127,,,,,,,,,,,,,,,,,,,,,,,,,,,,,,,,,,,,,,,,1,,,,,,,,,,,,,,,,,1538.7595460999873,None,1538.7595460999873,None,right,1,1.571841900004074,1538.7595460999873,None,1540.3611878000083,None,,,,,,,,,,,,,,,,,,,,,,,,,,,,,,,,,,2.L,001,2021_Feb_24_1343,cal_abstract,2020.2.10,59.859485846139094,
,,,,Fix1,stimuli/Old/4.jpg,right,,,,,,,,,,,,0,128,128,128,,,,,,,,,,,,,,,,,,,,,,,,,,,,,,,,,,,,,,,,1,,,,,,,,,,,,,,,,,1541.1699408999993,None,1541.1699408999993,None,right,1,0.9213635000050999,1541.1699408999993,None,1542.1121306000277,None,,,,,,,,,,,,,,,,,,,,,,,,,,,,,,,,,,2.L,001,2021_Feb_24_1343,cal_abstract,2020.2.10,59.859485846139094,
