Subj,Block,Type,Stim,Corr,Trial,Resp,RT,Succ,TrialType,TrialTypeInt
sub-11,Block1,Fix2,stimuli/Smell/28.jpg,right,0,right,4.26843207999991,1,Fix2-1,1
sub-11,Block1,Cond,stimuli/Healthy/51.jpg,left,1,right,1.36824522000097,0,Cond-1,1
sub-11,Block1,Cond,stimuli/Healthy/30.jpg,right,2,right,2.10109231000024,1,Cond-2,2
sub-11,Block1,Fix2,stimuli/Smell/27.jpg,right,3,right,2.68734660499831,1,Fix2-2,2
sub-11,Block1,Cond,stimuli/Healthy/46.jpg,left,4,left,1.04728645700015,1,Cond-3,3
sub-11,Block1,Cond,stimuli/Healthy/65.jpg,right,5,right,1.04691873499905,1,Cond-4,4
sub-11,Block1,Fix1,stimuli/Soft/32.jpg,left,6,left,1.85379083299995,1,Fix1-1,1
sub-11,Block1,Fix1,stimuli/Soft/23.jpg,left,7,right,1.17941563000204,0,Fix1-2,2
sub-11,Block1,Fix1,stimuli/Soft/47.jpg,left,8,right,1.74420606999774,0,Fix1-3,3
sub-11,Block1,Fix2,stimuli/Smell/49.jpg,right,9,right,0.567726482997386,1,Fix2-3,3
sub-11,Block1,Cond,stimuli/Healthy/52.jpg,left,10,left,1.12712404999911,1,Cond-5,5
sub-11,Block1,Fix1,stimuli/Soft/49.jpg,left,11,left,1.07196352499886,1,Fix1-4,4
sub-11,Block1,Fix1,stimuli/Soft/39.jpg,left,12,left,0.882209175000753,1,Fix1-5,5
sub-11,Block1,Cond,stimuli/Healthy/4.jpg,right,13,left,0.754137399999308,0,Cond-6,6
sub-11,Block1,Fix2,stimuli/Smell/5.jpg,right,14,right,1.59020122700167,1,Fix2-4,4
sub-11,Block1,Cond,stimuli/Healthy/69.jpg,left,15,right,1.51544611799909,0,Cond-7,7
sub-11,Block1,Fix2,stimuli/Smell/35.jpg,right,16,right,0.995138072001282,1,Fix2-5,5
sub-11,Block1,Cond,stimuli/Healthy/39.jpg,left,17,left,1.2076557750006,1,Cond-8,8
sub-11,Block1,Fix1,stimuli/Soft/14.jpg,left,18,left,1.73051455999666,1,Fix1-6,6
sub-11,Block1,Cond,stimuli/Healthy/10.jpg,right,19,left,0.952776989997801,0,Cond-9,9
sub-11,Block1,Fix2,stimuli/Smell/54.jpg,right,20,right,6.09155399299925,1,Fix2-6,6
sub-11,Block1,Fix1,stimuli/Soft/12.jpg,left,21,left,3.69892304699897,1,Fix1-7,7
sub-11,Block1,Fix1,stimuli/Soft/37.jpg,left,22,right,1.84354406000057,0,Fix1-8,8
sub-11,Block1,Fix2,stimuli/Smell/18.jpg,right,23,right,0.780613338996773,1,Fix2-7,7
sub-11,Block1,Cond,stimuli/Healthy/16.jpg,left,24,left,4.51453283500086,1,Cond-10,10
sub-11,Block1,Fix1,stimuli/Soft/7.jpg,left,25,left,5.50174179700116,1,Fix1-9,9
sub-11,Block1,Fix1,stimuli/Soft/44.jpg,left,26,left,1.25188349699965,1,Fix1-10,10
sub-11,Block1,Fix2,stimuli/Smell/57.jpg,right,27,right,3.17703621699911,1,Fix2-8,8
sub-11,Block1,Fix1,stimuli/Soft/29.jpg,left,28,left,1.92288027299946,1,Fix1-11,11
sub-11,Block1,Fix2,stimuli/Smell/50.jpg,right,29,right,0.943046854998101,1,Fix2-9,9
sub-11,Block1,Fix1,stimuli/Soft/41.jpg,left,30,left,1.02048217500123,1,Fix1-12,12
sub-11,Block1,Fix2,stimuli/Smell/58.jpg,right,31,right,0.762676687001658,1,Fix2-10,10
sub-11,Block1,Fix2,stimuli/Smell/56.jpg,right,32,right,1.51692272000219,1,Fix2-11,11
sub-11,Block1,Fix1,stimuli/Soft/13.jpg,left,33,left,6.51897753700177,1,Fix1-13,13
sub-11,Block1,Cond,stimuli/Healthy/35.jpg,right,34,left,2.70027866800228,0,Cond-11,11
sub-11,Block1,Cond,stimuli/Healthy/58.jpg,left,35,left,4.60086548300023,1,Cond-12,12
sub-11,Block1,Fix2,stimuli/Smell/6.jpg,right,36,right,0.742906747000234,1,Fix2-12,12
sub-11,Block1,Cond,stimuli/Healthy/60.jpg,left,37,left,3.02121260000058,1,Cond-13,13
sub-11,Block1,Fix1,stimuli/Soft/46.jpg,left,38,left,5.7470915039994,1,Fix1-14,14
sub-11,Block1,Fix2,stimuli/Smell/48.jpg,right,39,right,1.4313777669995,1,Fix2-13,13
sub-11,Block1,Cond,stimuli/Healthy/34.jpg,left,40,left,1.18935973000043,1,Cond-14,14
sub-11,Block1,Fix2,stimuli/Smell/34.jpg,right,41,right,0.846880739998596,1,Fix2-14,14
sub-11,Block1,Fix2,stimuli/Smell/29.jpg,right,42,right,2.76869031400201,1,Fix2-15,15
sub-11,Block1,Cond,stimuli/Healthy/67.jpg,left,43,left,1.32731059199796,1,Cond-15,15
sub-11,Block1,Fix2,stimuli/Smell/31.jpg,right,44,right,1.10990274000142,1,Fix2-16,16
sub-11,Block1,Fix1,stimuli/Soft/4.jpg,left,45,left,1.05084635700041,1,Fix1-15,15
sub-11,Block1,Fix1,stimuli/Soft/22.jpg,left,46,left,1.58952445500108,1,Fix1-16,16
sub-11,Block1,Fix1,stimuli/Soft/55.jpg,left,47,left,0.845953445001214,1,Fix1-17,17
sub-11,Block1,Cond,stimuli/Healthy/7.jpg,right,48,left,2.37342328199884,0,Cond-16,16
sub-11,Block1,Cond,stimuli/Healthy/38.jpg,left,49,left,1.07044613800099,1,Cond-17,17
sub-11,Block1,Cond,stimuli/Healthy/41.jpg,right,50,left,3.54603726500136,0,Cond-18,18
sub-11,Block1,Fix1,stimuli/Soft/20.JPG,left,51,left,1.00247098999898,1,Fix1-18,18
sub-11,Block1,Cond,stimuli/Healthy/20.jpg,right,52,left,2.02813448500092,0,Cond-19,19
sub-11,Block1,Fix2,stimuli/Smell/30.jpg,right,53,right,1.93307942200045,1,Fix2-17,17
sub-11,Block1,Fix2,stimuli/Smell/16.jpg,right,54,right,0.742151488000673,1,Fix2-18,18
sub-11,Block1,Fix1,stimuli/Soft/57.jpg,left,55,left,0.82193091299996,1,Fix1-19,19
sub-11,Block1,Fix1,stimuli/Soft/50.jpg,left,56,left,1.34541234999779,1,Fix1-20,20
sub-11,Block1,Fix1,stimuli/Soft/25.jpg,left,57,left,0.742388389997359,1,Fix1-21,21
sub-11,Block1,Fix1,stimuli/Soft/3.jpg,left,58,right,1.52584140000181,0,Fix1-22,22
sub-11,Block1,Cond,stimuli/Healthy/13.jpg,right,59,left,5.25554399999965,0,Cond-20,20
sub-11,Block1,Cond,stimuli/Healthy/63.jpg,left,60,left,3.297299140002,1,Cond-21,21
sub-11,Block1,Cond,stimuli/Healthy/23.jpg,right,61,right,3.06607435300248,1,Cond-22,22
sub-11,Block1,Fix1,stimuli/Soft/1.jpg,left,62,left,0.845032050001464,1,Fix1-23,23
sub-11,Block1,Cond,stimuli/Healthy/59.jpg,right,63,right,0.954160602999764,1,Cond-23,23
sub-11,Block1,Cond,stimuli/Healthy/1.jpg,left,64,right,3.31318513299993,0,Cond-24,24
sub-11,Block1,Fix2,stimuli/Smell/3.jpg,right,65,right,0.902950430001511,1,Fix2-19,19
sub-11,Block1,Fix1,stimuli/Soft/51.jpg,left,66,left,0.847139429999515,1,Fix1-24,24
sub-11,Block1,Fix1,stimuli/Soft/10.jpg,left,67,left,1.45912642700205,1,Fix1-25,25
sub-11,Block1,Fix1,stimuli/Soft/0.jpg,left,68,left,0.88311542700103,1,Fix1-26,26
sub-11,Block1,Fix1,stimuli/Soft/54.jpg,left,69,left,5.64607703999718,1,Fix1-27,27
sub-11,Block1,Fix2,stimuli/Smell/24.jpg,right,70,right,6.01920785399852,1,Fix2-20,20
sub-11,Block1,Fix1,stimuli/Soft/48.jpg,left,71,left,1.29276678000315,1,Fix1-28,28
sub-11,Block1,Fix2,stimuli/Smell/7.jpg,right,72,right,4.18028540999876,1,Fix2-21,21
sub-11,Block1,Fix2,stimuli/Smell/32.jpg,right,73,right,1.03579752799851,1,Fix2-22,22
sub-11,Block1,Fix1,stimuli/Soft/43.jpg,left,74,left,0.816894317998958,1,Fix1-29,29
sub-11,Block1,Fix1,stimuli/Soft/40.jpg,left,75,left,0.982463776999793,1,Fix1-30,30
sub-11,Block1,Fix2,stimuli/Smell/59.jpg,right,76,right,0.872409039999184,1,Fix2-23,23
sub-11,Block1,Fix1,stimuli/Soft/35.jpg,left,77,left,0.917340784999396,1,Fix1-31,31
sub-11,Block1,Cond,stimuli/Healthy/47.jpg,right,78,left,0.885742197999207,0,Cond-25,25
sub-11,Block1,Fix1,stimuli/Soft/34.jpg,left,79,left,1.91218067799855,1,Fix1-32,32
sub-11,Block1,Cond,stimuli/Healthy/61.jpg,right,80,left,3.52526491800018,0,Cond-26,26
sub-11,Block1,Fix2,stimuli/Smell/33.jpg,right,81,right,1.48713225499887,1,Fix2-24,24
sub-11,Block1,Fix2,stimuli/Smell/45.jpg,right,82,right,1.08703745300227,1,Fix2-25,25
sub-11,Block1,Cond,stimuli/Healthy/0.jpg,left,83,left,5.64450622000004,1,Cond-27,27
sub-11,Block1,Fix2,stimuli/Smell/8.jpg,right,84,right,1.10421321199829,1,Fix2-26,26
sub-11,Block1,Cond,stimuli/Healthy/66.jpg,left,85,left,1.5890241729976,1,Cond-28,28
sub-11,Block1,Cond,stimuli/Healthy/49.jpg,right,86,left,1.128307580002,0,Cond-29,29
sub-11,Block1,Fix1,stimuli/Soft/58.jpg,left,87,left,0.885783098001411,1,Fix1-33,33
sub-11,Block1,Cond,stimuli/Healthy/32.jpg,right,88,right,2.75900175000061,1,Cond-30,30
sub-11,Block1,Cond,stimuli/Healthy/26.jpg,left,89,left,11.1569463199994,1,Cond-31,31
sub-11,Block1,Fix2,stimuli/Smell/4.jpg,right,90,right,0.778654532998189,1,Fix2-27,27
sub-11,Block1,Fix2,stimuli/Smell/21.jpg,right,91,right,1.2995659929984,1,Fix2-28,28
sub-11,Block1,Fix1,stimuli/Soft/16.jpg,left,92,left,0.997088662999886,1,Fix1-34,34
sub-11,Block1,Fix2,stimuli/Smell/15.jpg,right,93,right,4.21133785500206,1,Fix2-29,29
sub-11,Block1,Fix2,stimuli/Smell/11.jpg,right,94,right,1.62975309299873,1,Fix2-30,30
sub-11,Block1,Fix1,stimuli/Soft/56.jpg,left,95,left,3.51998411499881,1,Fix1-35,35
sub-11,Block1,Cond,stimuli/Healthy/44.jpg,right,96,right,6.57390559499981,1,Cond-32,32
sub-11,Block1,Fix1,stimuli/Soft/26.jpg,left,97,right,5.44860603999769,0,Fix1-36,36
sub-11,Block1,Fix1,stimuli/Soft/8.jpg,left,98,left,2.96613590700144,1,Fix1-37,37
sub-11,Block1,Fix1,stimuli/Soft/6.jpg,left,99,left,1.15674574199875,1,Fix1-38,38
sub-11,Block1,Cond,stimuli/Healthy/31.jpg,right,100,right,3.83846401000119,1,Cond-33,33
sub-11,Block1,Cond,stimuli/Healthy/18.jpg,left,101,left,1.75583844300127,1,Cond-34,34
sub-11,Block1,Fix1,stimuli/Soft/11.jpg,left,102,left,1.47217625000121,1,Fix1-39,39
sub-11,Block1,Cond,stimuli/Healthy/37.jpg,right,103,right,2.08183995999934,1,Cond-35,35
sub-11,Block1,Fix2,stimuli/Smell/25.jpg,right,104,right,1.08532495499821,1,Fix2-31,31
sub-11,Block1,Fix1,stimuli/Soft/31.jpg,left,105,left,0.736819599998853,1,Fix1-40,40
sub-11,Block1,Cond,stimuli/Healthy/9.jpg,right,106,right,1.55508090700096,1,Cond-36,36
sub-11,Block1,Fix2,stimuli/Smell/26.jpg,right,107,right,1.77229344299849,1,Fix2-32,32
sub-11,Block1,Cond,stimuli/Healthy/17.jpg,left,108,left,0.844669206999242,1,Cond-37,37
sub-11,Block1,Fix1,stimuli/Soft/27.jpg,left,109,left,1.17701810500148,1,Fix1-41,41
sub-11,Block1,Cond,stimuli/Healthy/11.jpg,right,110,right,1.46623065499807,1,Cond-38,38
sub-11,Block1,Fix1,stimuli/Soft/18.jpg,left,111,left,1.7257987999983,1,Fix1-42,42
sub-11,Block1,Fix1,stimuli/Soft/38.jpg,left,112,left,2.21282695800255,1,Fix1-43,43
sub-11,Block1,Fix2,stimuli/Smell/43.jpg,right,113,right,0.738554884999758,1,Fix2-33,33
sub-11,Block1,Fix2,stimuli/Smell/47.jpg,right,114,right,0.787353324998548,1,Fix2-34,34
sub-11,Block1,Fix1,stimuli/Soft/21.jpg,left,115,left,2.0526802150016,1,Fix1-44,44
sub-11,Block1,Cond,stimuli/Healthy/62.jpg,right,116,right,1.64526648500032,1,Cond-39,39
sub-11,Block1,Cond,stimuli/Healthy/36.jpg,left,117,right,2.39157118000003,0,Cond-40,40
sub-11,Block1,Fix1,stimuli/Soft/30.jpg,left,118,left,1.04865270500159,1,Fix1-45,45
sub-11,Block1,Fix2,stimuli/Smell/46.jpg,right,119,right,3.11967248499786,1,Fix2-35,35
sub-11,Block1,Fix2,stimuli/Smell/51.jpg,right,120,right,0.799359362001269,1,Fix2-36,36
sub-11,Block1,Fix2,stimuli/Smell/20.jpg,right,121,right,1.80980006800019,1,Fix2-37,37
sub-11,Block1,Cond,stimuli/Healthy/14.jpg,left,122,left,4.24596462499903,1,Cond-41,41
sub-11,Block1,Cond,stimuli/Healthy/19.jpg,right,123,right,1.15482978499858,1,Cond-42,42
sub-11,Block1,Cond,stimuli/Healthy/6.jpg,left,124,left,1.51228209700275,1,Cond-43,43
sub-11,Block1,Cond,stimuli/Healthy/56.jpg,right,125,right,1.19729007999922,1,Cond-44,44
sub-11,Block1,Fix2,stimuli/Smell/19.jpg,right,126,right,2.51714903800166,1,Fix2-38,38
sub-11,Block1,Cond,stimuli/Healthy/68.jpg,left,127,left,2.69491429799746,1,Cond-45,45
sub-11,Block1,Fix2,stimuli/Smell/52.jpg,right,128,right,0.855529525000748,1,Fix2-39,39
sub-11,Block1,Fix1,stimuli/Soft/19.jpg,left,129,left,0.963782233000529,1,Fix1-46,46
sub-11,Block1,Fix1,stimuli/Soft/33.jpg,left,130,left,0.7391583000026,1,Fix1-47,47
sub-11,Block1,Fix2,stimuli/Smell/39.jpg,right,131,right,1.30568649200359,1,Fix2-40,40
sub-11,Block1,Fix2,stimuli/Smell/1.jpg,right,132,right,1.07299182700081,1,Fix2-41,41
sub-11,Block1,Cond,stimuli/Healthy/8.jpg,left,133,left,1.10245380500055,1,Cond-46,46
sub-11,Block1,Fix2,stimuli/Smell/38.jpg,right,134,right,1.02412943500167,1,Fix2-42,42
sub-11,Block1,Fix2,stimuli/Smell/41.jpg,right,135,right,0.72650016300031,1,Fix2-43,43
sub-11,Block1,Fix1,stimuli/Soft/9.jpg,left,136,left,1.3153040799989,1,Fix1-48,48
sub-11,Block1,Fix1,stimuli/Soft/59.jpg,left,137,left,1.60616002700044,1,Fix1-49,49
sub-11,Block1,Fix2,stimuli/Smell/17.jpg,right,138,right,0.857721792999655,1,Fix2-44,44
sub-11,Block1,Fix2,stimuli/Smell/36.jpg,right,139,right,0.848644924997643,1,Fix2-45,45
sub-11,Block1,Fix2,stimuli/Smell/2.jpg,right,140,right,0.847647283000697,1,Fix2-46,46
sub-11,Block1,Fix2,stimuli/Smell/9.jpg,right,141,right,0.740411365000909,1,Fix2-47,47
sub-11,Block1,Fix1,stimuli/Soft/17.jpg,left,142,left,1.72290735199931,1,Fix1-50,50
sub-11,Block1,Fix2,stimuli/Smell/40.jpg,right,143,right,1.00330601500173,1,Fix2-48,48
sub-11,Block1,Cond,stimuli/Healthy/21.jpg,left,144,left,1.33741519999967,1,Cond-47,47
sub-11,Block1,Cond,stimuli/Healthy/64.jpg,right,145,right,1.27847941200162,1,Cond-48,48
sub-11,Block1,Fix1,stimuli/Soft/24.jpg,left,146,left,1.16499907500111,1,Fix1-51,51
sub-11,Block1,Cond,stimuli/Healthy/45.jpg,right,147,right,1.39030640300189,1,Cond-49,49
sub-11,Block1,Cond,stimuli/Healthy/29.jpg,left,148,left,1.06355978500142,1,Cond-50,50
sub-11,Block1,Fix1,stimuli/Soft/42.jpg,left,149,left,2.00235831200189,1,Fix1-52,52
sub-11,Block1,Cond,stimuli/Healthy/55.jpg,right,150,right,1.08152670799973,1,Cond-51,51
sub-11,Block1,Fix1,stimuli/Soft/15.jpg,left,151,left,0.899665924996953,1,Fix1-53,53
sub-11,Block1,Fix2,stimuli/Smell/44.jpg,right,152,right,0.769682551999722,1,Fix2-49,49
sub-11,Block1,Fix2,stimuli/Smell/37.jpg,right,153,right,0.711823541998456,1,Fix2-50,50
sub-11,Block1,Fix1,stimuli/Soft/28.jpg,left,154,left,0.887866266999481,1,Fix1-54,54
sub-11,Block1,Cond,stimuli/Healthy/50.jpg,right,155,right,1.07542177000141,1,Cond-52,52
sub-11,Block1,Fix1,stimuli/Soft/52.jpg,left,156,left,1.10034931500195,1,Fix1-55,55
sub-11,Block1,Cond,stimuli/Healthy/5.jpg,right,157,right,0.89001239999925,1,Cond-53,53
sub-11,Block1,Fix1,stimuli/Soft/45.jpg,left,158,left,0.926259758001834,1,Fix1-56,56
sub-11,Block1,Fix2,stimuli/Smell/42.jpg,right,159,right,0.769976022002083,1,Fix2-51,51
sub-11,Block1,Fix2,stimuli/Smell/12.jpg,right,160,right,0.756955354998354,1,Fix2-52,52
sub-11,Block1,Cond,stimuli/Healthy/40.jpg,left,161,left,1.0079856730008,1,Cond-54,54
sub-11,Block1,Fix2,stimuli/Smell/0.jpg,right,162,right,1.54261869999755,1,Fix2-53,53
sub-11,Block1,Cond,stimuli/Healthy/48.jpg,left,163,left,1.3241796220027,1,Cond-55,55
sub-11,Block1,Fix2,stimuli/Smell/10.jpg,right,164,right,0.939874363000854,1,Fix2-54,54
sub-11,Block1,Fix1,stimuli/Soft/53.jpg,left,165,left,0.757305694998649,1,Fix1-57,57
sub-11,Block1,Fix2,stimuli/Smell/55.jpg,right,166,right,1.14144340299754,1,Fix2-55,55
sub-11,Block1,Fix2,stimuli/Smell/53.jpg,right,167,right,1.32680383999832,1,Fix2-56,56
sub-11,Block1,Fix1,stimuli/Soft/36.jpg,left,168,left,2.41294600499896,1,Fix1-58,58
sub-11,Block1,Fix2,stimuli/Smell/14.jpg,right,169,left,7.7150134830008,0,Fix2-57,57
sub-11,Block1,Cond,stimuli/Healthy/53.jpg,left,170,right,3.84663419799836,0,Cond-56,56
sub-11,Block1,Fix2,stimuli/Smell/22.jpg,right,171,right,3.54404116799924,1,Fix2-58,58
sub-11,Block1,Cond,stimuli/Healthy/27.jpg,left,172,left,1.00896307500079,1,Cond-57,57
sub-11,Block1,Cond,stimuli/Healthy/3.jpg,right,173,right,1.02731115500137,1,Cond-58,58
sub-11,Block1,Cond,stimuli/Healthy/22.jpg,left,174,left,0.884709767000459,1,Cond-59,59
sub-11,Block1,Fix2,stimuli/Smell/13.jpg,right,175,right,0.743993435000448,1,Fix2-59,59
sub-11,Block1,Cond,stimuli/Healthy/25.jpg,left,176,left,0.877685679999558,1,Cond-60,60
sub-11,Block1,Fix2,stimuli/Smell/23.jpg,right,177,right,0.827133071998105,1,Fix2-60,60
sub-11,Block1,Fix1,stimuli/Soft/5.jpg,left,178,left,1.37234394500047,1,Fix1-59,59
sub-11,Block1,Fix1,stimuli/Soft/2.jpg,left,179,left,0.895192364998366,1,Fix1-60,60
sub-11,Block2,Fix2,stimuli/Small/17.jpg,left,0,right,4.97512284500044,0,Fix2-1,1
sub-11,Block2,Fix2,stimuli/Small/39.jpg,left,1,left,2.59188444200117,1,Fix2-2,2
sub-11,Block2,Cond,stimuli/Sad/21.jpg,right,2,right,2.99723419300062,1,Cond-1,1
sub-11,Block2,Cond,stimuli/Sad/15.jpg,left,3,left,5.46150521800155,1,Cond-2,2
sub-11,Block2,Fix1,stimuli/Old/49.jpg,right,4,right,1.99628495499928,1,Fix1-1,1
sub-11,Block2,Cond,stimuli/Sad/51.jpg,left,5,left,1.62237202000324,1,Cond-3,3
sub-11,Block2,Fix1,stimuli/Old/9.jpg,right,6,left,2.98950888000036,0,Fix1-2,2
sub-11,Block2,Cond,stimuli/Sad/7.jpg,left,7,right,2.48718761499913,0,Cond-4,4
sub-11,Block2,Cond,stimuli/Sad/31.jpg,right,8,left,2.6829397520014,0,Cond-5,5
sub-11,Block2,Cond,stimuli/Sad/54.jpg,left,9,right,0.924817244998849,0,Cond-6,6
sub-11,Block2,Fix1,stimuli/Old/26.jpg,right,10,left,0.221619539999665,0,Fix1-3,3
sub-11,Block2,Fix2,stimuli/Small/22.jpg,left,11,right,2.65207801200086,0,Fix2-3,3
sub-11,Block2,Fix2,stimuli/Small/4.jpg,left,12,right,3.18413455300106,0,Fix2-4,4
sub-11,Block2,Cond,stimuli/Sad/16.jpg,right,13,left,5.45015657199838,0,Cond-7,7
sub-11,Block2,Fix2,stimuli/Small/48.jpg,left,14,right,2.48749859999953,0,Fix2-5,5
sub-11,Block2,Fix1,stimuli/Old/15.jpg,right,15,left,1.39058241300154,0,Fix1-4,4
sub-11,Block2,Cond,stimuli/Sad/27.jpg,left,16,right,5.15084489799847,0,Cond-8,8
sub-11,Block2,Cond,stimuli/Sad/17.jpg,right,17,left,1.70984365199911,0,Cond-9,9
sub-11,Block2,Cond,stimuli/Sad/42.jpg,left,18,left,2.38845282199691,1,Cond-10,10
sub-11,Block2,Fix1,stimuli/Old/52.jpg,right,19,right,6.72668920500291,1,Fix1-5,5
sub-11,Block2,Cond,stimuli/Sad/59.jpg,left,20,left,0.982160532003036,1,Cond-11,11
sub-11,Block2,Cond,stimuli/Sad/52.jpg,right,21,left,1.00056705200041,0,Cond-12,12
sub-11,Block2,Fix2,stimuli/Small/16.jpg,left,22,right,6.43401181000081,0,Fix2-6,6
sub-11,Block2,Fix1,stimuli/Old/10.jpg,right,23,right,1.41195296000296,1,Fix1-6,6
sub-11,Block2,Fix1,stimuli/Old/59.jpg,right,24,right,0.697929434998514,1,Fix1-7,7
sub-11,Block2,Fix1,stimuli/Old/32.jpg,right,25,right,0.709084779999102,1,Fix1-8,8
sub-11,Block2,Fix2,stimuli/Small/9.jpg,left,26,left,4.68247189499743,1,Fix2-7,7
sub-11,Block2,Fix2,stimuli/Small/47.jpg,left,27,right,1.98726471500049,0,Fix2-8,8
sub-11,Block2,Fix1,stimuli/Old/43.jpg,right,28,right,0.977815754999028,1,Fix1-9,9
sub-11,Block2,Fix2,stimuli/Small/19.jpg,left,29,right,0.99391593999826,0,Fix2-9,9
sub-11,Block2,Cond,stimuli/Sad/47.jpg,right,30,left,1.08225170700098,0,Cond-13,13
sub-11,Block2,Cond,stimuli/Sad/0.jpg,left,31,left,0.841428150000866,1,Cond-14,14
sub-11,Block2,Fix1,stimuli/Old/20.jpg,right,32,right,0.946170553001139,1,Fix1-10,10
sub-11,Block2,Fix2,stimuli/Small/45.jpg,left,33,left,8.11562749299992,1,Fix2-10,10
sub-11,Block2,Fix1,stimuli/Old/54.jpg,right,34,right,0.817461321999872,1,Fix1-11,11
sub-11,Block2,Cond,stimuli/Sad/48.jpg,left,35,left,1.10374933999992,1,Cond-15,15
sub-11,Block2,Fix1,stimuli/Old/41.jpg,right,36,right,0.932472676999168,1,Fix1-12,12
sub-11,Block2,Fix1,stimuli/Old/29.jpg,right,37,right,1.17461329799698,1,Fix1-13,13
sub-11,Block2,Fix1,stimuli/Old/30.jpg,right,38,right,1.04632232800213,1,Fix1-14,14
sub-11,Block2,Fix1,stimuli/Old/44.jpg,right,39,left,2.97500361499988,0,Fix1-15,15
sub-11,Block2,Cond,stimuli/Sad/26.jpg,left,40,left,3.56024832299954,1,Cond-16,16
sub-11,Block2,Cond,stimuli/Sad/40.jpg,right,41,left,1.57707049999954,0,Cond-17,17
sub-11,Block2,Cond,stimuli/Sad/36.jpg,left,42,left,0.978413594999438,1,Cond-18,18
sub-11,Block2,Cond,stimuli/Sad/8.jpg,right,43,left,1.02931515800083,0,Cond-19,19
sub-11,Block2,Fix2,stimuli/Small/23.jpg,left,44,left,2.17342809800175,1,Fix2-11,11
sub-11,Block2,Fix2,stimuli/Small/49.jpg,left,45,right,8.35964653699921,0,Fix2-12,12
sub-11,Block2,Fix1,stimuli/Old/58.jpg,right,46,right,0.891646385000058,1,Fix1-16,16
sub-11,Block2,Fix1,stimuli/Old/57.jpg,right,47,right,0.947827866999432,1,Fix1-17,17
sub-11,Block2,Fix1,stimuli/Old/4.jpg,right,48,right,1.09057291299905,1,Fix1-18,18
sub-11,Block2,Cond,stimuli/Sad/39.jpg,left,49,left,1.86192668999865,1,Cond-20,20
sub-11,Block2,Fix2,stimuli/Small/50.jpg,left,50,right,1.03602702799981,0,Fix2-13,13
sub-11,Block2,Fix1,stimuli/Old/1.jpg,right,51,right,2.0253955349981,1,Fix1-19,19
sub-11,Block2,Fix1,stimuli/Old/0.jpg,right,52,right,0.840422970002692,1,Fix1-20,20
sub-11,Block2,Cond,stimuli/Sad/5.jpg,left,53,left,1.0277233429988,1,Cond-21,21
sub-11,Block2,Cond,stimuli/Sad/49.jpg,right,54,left,1.5221936559974,0,Cond-22,22
sub-11,Block2,Fix1,stimuli/Old/34.jpg,right,55,right,2.71615050699984,1,Fix1-21,21
sub-11,Block2,Fix1,stimuli/Old/12.jpg,right,56,right,0.718491774998256,1,Fix1-22,22
sub-11,Block2,Fix2,stimuli/Small/7.jpg,left,57,left,11.3161651959999,1,Fix2-14,14
sub-11,Block2,Fix1,stimuli/Old/50.jpg,right,58,right,0.833725067001069,1,Fix1-23,23
sub-11,Block2,Fix2,stimuli/Small/2.jpg,left,59,right,2.77817117000086,0,Fix2-15,15
sub-11,Block2,Fix1,stimuli/Old/48.jpg,right,60,right,0.649149790002411,1,Fix1-24,24
sub-11,Block2,Cond,stimuli/Sad/46.jpg,left,61,left,0.824559245000273,1,Cond-23,23
sub-11,Block2,Cond,stimuli/Sad/18.jpg,right,62,left,1.85957501399753,0,Cond-24,24
sub-11,Block2,Cond,stimuli/Sad/1.jpg,left,63,left,2.11920835700221,1,Cond-25,25
sub-11,Block2,Fix1,stimuli/Old/22.jpg,right,64,right,1.12099676999787,1,Fix1-25,25
sub-11,Block2,Fix2,stimuli/Small/59.jpg,left,65,right,1.23942329499914,0,Fix2-16,16
sub-11,Block2,Fix1,stimuli/Old/31.jpg,right,66,right,2.95297863199812,1,Fix1-26,26
sub-11,Block2,Fix2,stimuli/Small/37.jpg,left,67,left,3.23855390200333,1,Fix2-17,17
sub-11,Block2,Fix2,stimuli/Small/60.jpg,left,68,right,2.44105169700197,0,Fix2-18,18
sub-11,Block2,Fix2,stimuli/Small/21.jpg,left,69,right,2.82237088799957,0,Fix2-19,19
sub-11,Block2,Fix2,stimuli/Small/43.jpg,left,70,right,2.89880979699956,0,Fix2-20,20
sub-11,Block2,Fix2,stimuli/Small/29.jpg,left,71,right,0.998479485002463,0,Fix2-21,21
sub-11,Block2,Cond,stimuli/Sad/22.jpg,right,72,left,1.0436296830012,0,Cond-26,26
sub-11,Block2,Cond,stimuli/Sad/9.jpg,left,73,left,0.782441114999529,1,Cond-27,27
sub-11,Block2,Fix1,stimuli/Old/25.jpg,right,74,right,0.76728218000062,1,Fix1-27,27
sub-11,Block2,Fix2,stimuli/Small/46.jpg,left,75,left,2.13346551500217,1,Fix2-22,22
sub-11,Block2,Cond,stimuli/Sad/33.jpg,right,76,right,1.35378001699792,1,Cond-28,28
sub-11,Block2,Fix2,stimuli/Small/40.jpg,left,77,right,1.05673830999876,0,Fix2-23,23
sub-11,Block2,Cond,stimuli/Sad/24.jpg,right,78,left,0.828909255000326,0,Cond-29,29
sub-11,Block2,Fix2,stimuli/Small/35.jpg,left,79,right,3.61216156500086,0,Fix2-24,24
sub-11,Block2,Cond,stimuli/Sad/14.jpg,right,80,left,0.812947436999821,0,Cond-30,30
sub-11,Block2,Fix2,stimuli/Small/6.jpg,left,81,right,6.10152146000109,0,Fix2-25,25
sub-11,Block2,Fix2,stimuli/Small/34.jpg,left,82,left,3.79480308500206,1,Fix2-26,26
sub-11,Block2,Fix1,stimuli/Old/21.jpg,right,83,right,3.25673973800076,1,Fix1-28,28
sub-11,Block2,Fix2,stimuli/Small/3.jpg,left,84,left,2.92548431499745,1,Fix2-27,27
sub-11,Block2,Fix2,stimuli/Small/33.jpg,left,85,right,2.19688076300008,0,Fix2-28,28
sub-11,Block2,Cond,stimuli/Sad/34.jpg,right,86,left,3.75204842499807,0,Cond-31,31
sub-11,Block2,Fix1,stimuli/Old/14.jpg,right,87,right,2.13862257000073,1,Fix1-29,29
sub-11,Block2,Cond,stimuli/Sad/37.jpg,left,88,left,1.1817915419997,1,Cond-32,32
sub-11,Block2,Fix1,stimuli/Old/39.jpg,right,89,right,0.885222689998045,1,Fix1-30,30
sub-11,Block2,Fix2,stimuli/Small/30.jpg,left,90,left,1.79361922000317,1,Fix2-29,29
sub-11,Block2,Fix1,stimuli/Old/7.jpg,right,91,right,0.722781868000311,1,Fix1-31,31
sub-11,Block2,Fix1,stimuli/Old/45.jpg,right,92,right,0.785491327998898,1,Fix1-32,32
sub-11,Block2,Fix2,stimuli/Small/52.jpg,left,93,left,1.52248597500147,1,Fix2-30,30
sub-11,Block2,Fix2,stimuli/Small/12.jpg,left,94,left,1.4748398269985,1,Fix2-31,31
sub-11,Block2,Fix1,stimuli/Old/3.jpg,right,95,right,1.09349691700118,1,Fix1-33,33
sub-11,Block2,Cond,stimuli/Sad/3.jpg,left,96,left,1.68315100999826,1,Cond-33,33
sub-11,Block2,Cond,stimuli/Sad/30.jpg,right,97,left,1.74803085999883,0,Cond-34,34
sub-11,Block2,Cond,stimuli/Sad/25.jpg,left,98,left,3.82046402999913,1,Cond-35,35
sub-11,Block2,Fix2,stimuli/Small/55.jpg,left,99,right,0.734763146996556,0,Fix2-32,32
sub-11,Block2,Fix1,stimuli/Old/47.jpg,right,100,right,0.716057711997564,1,Fix1-34,34
sub-11,Block2,Fix2,stimuli/Small/51.jpg,left,101,right,2.99984294499882,0,Fix2-33,33
sub-11,Block2,Fix2,stimuli/Small/1.jpg,left,102,right,4.33224980299929,0,Fix2-34,34
sub-11,Block2,Fix2,stimuli/Small/25.jpg,left,103,right,0.861820850001095,0,Fix2-35,35
sub-11,Block2,Fix1,stimuli/Old/28.jpg,right,104,right,0.908243254998524,1,Fix1-35,35
sub-11,Block2,Fix2,stimuli/Small/36.jpg,left,105,right,0.867631305001851,0,Fix2-36,36
sub-11,Block2,Cond,stimuli/Sad/43.jpg,right,106,left,3.54633143499814,0,Cond-36,36
sub-11,Block2,Fix2,stimuli/Small/10.jpg,left,107,left,8.001215065,1,Fix2-37,37
sub-11,Block2,Cond,stimuli/Sad/38.jpg,right,108,left,3.1781810700013,0,Cond-37,37
sub-11,Block2,Fix1,stimuli/Old/40.jpg,right,109,right,1.32349800700104,1,Fix1-36,36
sub-11,Block2,Fix2,stimuli/Small/57.jpg,left,110,right,1.90013652199923,0,Fix2-38,38
sub-11,Block2,Fix2,stimuli/Small/8.jpg,left,111,left,1.14557196000169,1,Fix2-39,39
sub-11,Block2,Fix1,stimuli/Old/23.jpg,right,112,right,0.833456680000381,1,Fix1-37,37
sub-11,Block2,Fix1,stimuli/Old/56.jpg,right,113,right,0.698077320001175,1,Fix1-38,38
sub-11,Block2,Fix1,stimuli/Old/24.jpg,right,114,right,0.506026710001606,1,Fix1-39,39
sub-11,Block2,Fix1,stimuli/Old/38.jpg,right,115,right,0.686283430000913,1,Fix1-40,40
sub-11,Block2,Fix2,stimuli/Small/31.JPG,left,116,left,1.78154927500145,1,Fix2-40,40
sub-11,Block2,Fix2,stimuli/Small/41.jpg,left,117,left,4.82513287300026,1,Fix2-41,41
sub-11,Block2,Fix2,stimuli/Small/28.jpg,left,118,left,3.97709549300271,1,Fix2-42,42
sub-11,Block2,Fix1,stimuli/Old/55.jpg,right,119,right,2.34899924999991,1,Fix1-41,41
sub-11,Block2,Cond,stimuli/Sad/35.jpg,left,120,left,1.82054734700068,1,Cond-38,38
sub-11,Block2,Cond,stimuli/Sad/44.jpg,right,121,left,0.877780863000226,0,Cond-39,39
sub-11,Block2,Fix2,stimuli/Small/32.jpg,left,122,left,1.31394092299888,1,Fix2-43,43
sub-11,Block2,Fix1,stimuli/Old/46.jpg,right,123,right,0.875581133001106,1,Fix1-42,42
sub-11,Block2,Fix2,stimuli/Small/44.jpg,left,124,left,1.25377901200045,1,Fix2-44,44
sub-11,Block2,Fix2,stimuli/Small/18.jpg,left,125,left,1.67458700299903,1,Fix2-45,45
sub-11,Block2,Fix1,stimuli/Old/42.jpg,right,126,right,0.786023046999617,1,Fix1-43,43
sub-11,Block2,Cond,stimuli/Sad/2.jpg,left,127,left,1.09417981800289,1,Cond-40,40
sub-11,Block2,Cond,stimuli/Sad/10.jpg,right,128,left,0.8476748030007,0,Cond-41,41
sub-11,Block2,Fix1,stimuli/Old/2.jpg,right,129,right,2.94452983500014,1,Fix1-44,44
sub-11,Block2,Fix2,stimuli/Small/38.jpg,left,130,left,1.62928054200165,1,Fix2-46,46
sub-11,Block2,Cond,stimuli/Sad/12.jpg,right,131,right,1.15381618000174,1,Cond-42,42
sub-11,Block2,Fix2,stimuli/Small/42.jpg,left,132,left,1.25886067999818,1,Fix2-47,47
sub-11,Block2,Fix1,stimuli/Old/13.jpg,right,133,right,0.822919587997603,1,Fix1-45,45
sub-11,Block2,Cond,stimuli/Sad/41.jpg,left,134,left,1.64934323499983,1,Cond-43,43
sub-11,Block2,Fix1,stimuli/Old/6.jpg,right,135,right,1.09352070999739,1,Fix1-46,46
sub-11,Block2,Fix2,stimuli/Small/0.jpg,left,136,left,1.09830650000004,1,Fix2-48,48
sub-11,Block2,Fix2,stimuli/Small/56.jpg,left,137,left,0.978260247000435,1,Fix2-49,49
sub-11,Block2,Fix2,stimuli/Small/13.jpg,left,138,left,0.681786575001752,1,Fix2-50,50
sub-11,Block2,Cond,stimuli/Sad/56.jpg,right,139,right,1.98649486800059,1,Cond-44,44
sub-11,Block2,Cond,stimuli/Sad/28.jpg,left,140,left,14.2017365950014,1,Cond-45,45
sub-11,Block2,Cond,stimuli/Sad/20.jpg,right,141,right,1.06588440699852,1,Cond-46,46
sub-11,Block2,Fix1,stimuli/Old/53.jpg,right,142,right,1.03052477000165,1,Fix1-47,47
sub-11,Block2,Fix1,stimuli/Old/5.jpg,right,143,right,0.778699254999083,1,Fix1-48,48
sub-11,Block2,Fix1,stimuli/Old/18.jpg,right,144,right,0.657372084999224,1,Fix1-49,49
sub-11,Block2,Cond,stimuli/Sad/50.jpg,left,145,left,1.58115605799685,1,Cond-47,47
sub-11,Block2,Fix2,stimuli/Small/54.jpg,left,146,left,1.83744369499982,1,Fix2-51,51
sub-11,Block2,Fix1,stimuli/Old/33.jpg,right,147,right,4.05731542799913,1,Fix1-50,50
sub-11,Block2,Cond,stimuli/Sad/55.jpg,left,148,left,1.40640118699957,1,Cond-48,48
sub-11,Block2,Fix1,stimuli/Old/19.jpg,right,149,left,1.3520900830008,0,Fix1-51,51
sub-11,Block2,Cond,stimuli/Sad/4.jpg,left,150,right,1.37890058799894,0,Cond-49,49
sub-11,Block2,Cond,stimuli/Sad/58.jpg,right,151,right,2.85975608800072,1,Cond-50,50
sub-11,Block2,Cond,stimuli/Sad/13.jpg,left,152,left,1.46990090200052,1,Cond-51,51
sub-11,Block2,Fix2,stimuli/Small/14.jpg,left,153,left,1.9317430930023,1,Fix2-52,52
sub-11,Block2,Cond,stimuli/Sad/32.jpg,right,154,right,2.28332312999919,1,Cond-52,52
sub-11,Block2,Cond,stimuli/Sad/57.jpg,left,155,left,1.06083319800018,1,Cond-53,53
sub-11,Block2,Cond,stimuli/Sad/11.jpg,right,156,right,0.888520734999474,1,Cond-54,54
sub-11,Block2,Fix1,stimuli/Old/17.jpg,right,157,right,2.25087357699886,1,Fix1-52,52
sub-11,Block2,Fix1,stimuli/Old/35.jpg,right,158,right,0.990750364999258,1,Fix1-53,53
sub-11,Block2,Fix2,stimuli/Small/11.jpg,left,159,left,0.684251940001559,1,Fix2-53,53
sub-11,Block2,Fix1,stimuli/Old/36.jpg,right,160,left,1.20760744500149,0,Fix1-54,54
sub-11,Block2,Fix1,stimuli/Old/8.jpg,right,161,right,3.661735873,1,Fix1-55,55
sub-11,Block2,Fix2,stimuli/Small/5.jpg,left,162,left,1.13685458300097,1,Fix2-54,54
sub-11,Block2,Fix2,stimuli/Small/53.jpg,left,163,left,0.706552274998103,1,Fix2-55,55
sub-11,Block2,Cond,stimuli/Sad/23.jpg,right,164,right,1.43306834999748,1,Cond-55,55
sub-11,Block2,Cond,stimuli/Sad/19.jpg,left,165,left,0.934958842000924,1,Cond-56,56
sub-11,Block2,Fix2,stimuli/Small/20.jpg,left,166,left,2.74036036699908,1,Fix2-56,56
sub-11,Block2,Fix1,stimuli/Old/16.jpg,right,167,right,0.792717764998088,1,Fix1-56,56
sub-11,Block2,Cond,stimuli/Sad/6.jpg,left,168,left,2.41441651500281,1,Cond-57,57
sub-11,Block2,Cond,stimuli/Sad/45.jpg,right,169,right,4.90627143999882,1,Cond-58,58
sub-11,Block2,Fix2,stimuli/Small/15.jpg,left,170,left,0.900716547002958,1,Fix2-57,57
sub-11,Block2,Cond,stimuli/Sad/29.jpg,right,171,right,2.48991982500229,1,Cond-59,59
sub-11,Block2,Fix2,stimuli/Small/24.jpg,left,172,left,1.00369846800095,1,Fix2-58,58
sub-11,Block2,Fix1,stimuli/Old/37.jpg,right,173,right,0.808296010000049,1,Fix1-57,57
sub-11,Block2,Cond,stimuli/Sad/53.jpg,left,174,left,1.21189119300107,1,Cond-60,60
sub-11,Block2,Fix2,stimuli/Small/58.jpg,left,175,left,1.04172461800044,1,Fix2-59,59
sub-11,Block2,Fix1,stimuli/Old/11.jpg,right,176,right,1.37736794800003,1,Fix1-58,58
sub-11,Block2,Fix1,stimuli/Old/51.jpg,right,177,right,1.26727973800007,1,Fix1-59,59
sub-11,Block2,Fix1,stimuli/Old/27.jpg,right,178,left,3.54525121999905,0,Fix1-60,60
sub-11,Block2,Fix2,stimuli/Small/27.jpg,left,179,left,0.958088612998836,1,Fix2-60,60
sub-11,Block3,Fix2,stimuli/Wealth/23.jpg,right,0,right,3.08360302499932,1,Fix2-1,1
sub-11,Block3,Fix2,stimuli/Wealth/28.jpg,right,1,right,1.35674976500013,1,Fix2-2,2
sub-11,Block3,Cond,stimuli/School/34.jpg,left,2,left,1.36501555499854,1,Cond-1,1
sub-11,Block3,Fix2,stimuli/Wealth/57.jpg,right,3,right,1.19949037799961,1,Fix2-3,3
sub-11,Block3,Cond,stimuli/School/42.jpg,left,4,left,1.21985802700146,1,Cond-2,2
sub-11,Block3,Fix1,stimuli/Dangerous/17.jpg,left,5,right,2.00677586500024,0,Fix1-1,1
sub-11,Block3,Fix1,stimuli/Dangerous/32.jpg,left,6,right,3.35995618299785,0,Fix1-2,2
sub-11,Block3,Fix1,stimuli/Dangerous/35.jpg,left,7,left,0.904355972998019,1,Fix1-3,3
sub-11,Block3,Fix1,stimuli/Dangerous/2.jpg,left,8,left,1.5813555579989,1,Fix1-4,4
sub-11,Block3,Fix2,stimuli/Wealth/10.jpg,right,9,right,0.986693257000297,1,Fix2-4,4
sub-11,Block3,Fix2,stimuli/Wealth/26.jpg,right,10,left,2.34975810000105,0,Fix2-5,5
sub-11,Block3,Fix1,stimuli/Dangerous/45.jpg,left,11,left,2.24179210700095,1,Fix1-5,5
sub-11,Block3,Fix2,stimuli/Wealth/52.jpg,right,12,right,0.864240793001954,1,Fix2-6,6
sub-11,Block3,Cond,stimuli/School/24.jpg,left,13,left,17.9850576280005,1,Cond-3,3
sub-11,Block3,Cond,stimuli/School/17.jpg,right,14,right,2.94898269000259,1,Cond-4,4
sub-11,Block3,Fix2,stimuli/Wealth/44.jpg,right,15,right,1.20391809800276,1,Fix2-7,7
sub-11,Block3,Cond,stimuli/School/10.jpg,left,16,right,4.87054701799934,0,Cond-5,5
sub-11,Block3,Cond,stimuli/School/4.jpg,right,17,left,2.1331310079986,0,Cond-6,6
sub-11,Block3,Fix2,stimuli/Wealth/38.jpg,right,18,right,1.44880734699836,1,Fix2-8,8
sub-11,Block3,Fix1,stimuli/Dangerous/58.jpg,left,19,left,1.43360962299994,1,Fix1-6,6
sub-11,Block3,Fix1,stimuli/Dangerous/59.jpg,left,20,left,1.15008474500064,1,Fix1-7,7
sub-11,Block3,Fix2,stimuli/Wealth/36.jpg,right,21,right,1.33082209500208,1,Fix2-9,9
sub-11,Block3,Cond,stimuli/School/37.jpg,left,22,left,2.29580450299909,1,Cond-7,7
sub-11,Block3,Fix1,stimuli/Dangerous/48.jpg,left,23,right,2.45423199699871,0,Fix1-8,8
sub-11,Block3,Fix1,stimuli/Dangerous/53.jpg,left,24,left,0.991811555002641,1,Fix1-9,9
sub-11,Block3,Fix2,stimuli/Wealth/12.jpg,right,25,left,5.44277670299925,0,Fix2-10,10
sub-11,Block3,Fix2,stimuli/Wealth/18.jpg,right,26,right,1.58774484799869,1,Fix2-11,11
sub-11,Block3,Cond,stimuli/School/51.jpg,left,27,left,1.92951166499915,1,Cond-8,8
sub-11,Block3,Fix2,stimuli/Wealth/5.jpg,right,28,right,1.91600208000091,1,Fix2-12,12
sub-11,Block3,Fix2,stimuli/Wealth/6.jpg,right,29,right,0.782789886998216,1,Fix2-13,13
sub-11,Block3,Cond,stimuli/School/30.jpg,left,30,left,2.39174024800013,1,Cond-9,9
sub-11,Block3,Cond,stimuli/School/55.jpg,right,31,right,4.07292661999963,1,Cond-10,10
sub-11,Block3,Fix1,stimuli/Dangerous/47.jpg,left,32,left,2.23292127999957,1,Fix1-10,10
sub-11,Block3,Fix2,stimuli/Wealth/51.jpg,right,33,right,0.979479910001828,1,Fix2-14,14
sub-11,Block3,Cond,stimuli/School/28.jpg,left,34,left,1.4609340019997,1,Cond-11,11
sub-11,Block3,Fix2,stimuli/Wealth/30.jpg,right,35,right,1.58587994000118,1,Fix2-15,15
sub-11,Block3,Fix2,stimuli/Wealth/39.jpg,right,36,right,0.654368691997661,1,Fix2-16,16
sub-11,Block3,Fix2,stimuli/Wealth/3.jpg,right,37,right,1.1453269779995,1,Fix2-17,17
sub-11,Block3,Cond,stimuli/School/27.jpg,left,38,left,3.18378925700017,1,Cond-12,12
sub-11,Block3,Fix2,stimuli/Wealth/17.jpg,right,39,right,0.809481909996975,1,Fix2-18,18
sub-11,Block3,Fix2,stimuli/Wealth/20.jpg,right,40,right,0.728660804998071,1,Fix2-19,19
sub-11,Block3,Cond,stimuli/School/9.jpg,left,41,left,2.46135711799798,1,Cond-13,13
sub-11,Block3,Cond,stimuli/School/56.jpg,right,42,right,1.18625239500034,1,Cond-14,14
sub-11,Block3,Fix1,stimuli/Dangerous/15.jpg,left,43,left,1.39471074299945,1,Fix1-11,11
sub-11,Block3,Fix1,stimuli/Dangerous/3.jpg,left,44,left,1.09133527700033,1,Fix1-12,12
sub-11,Block3,Fix2,stimuli/Wealth/54.jpg,right,45,right,0.692681258002267,1,Fix2-20,20
sub-11,Block3,Cond,stimuli/School/8.jpg,left,46,left,1.47225950500069,1,Cond-15,15
sub-11,Block3,Fix2,stimuli/Wealth/45.jpg,right,47,right,0.768311378000362,1,Fix2-21,21
sub-11,Block3,Fix2,stimuli/Wealth/40.jpg,right,48,right,0.879150994998781,1,Fix2-22,22
sub-11,Block3,Fix2,stimuli/Wealth/21.jpg,right,49,right,3.26816750500075,1,Fix2-23,23
sub-11,Block3,Fix2,stimuli/Wealth/53.jpg,right,50,right,0.971134512998105,1,Fix2-24,24
sub-11,Block3,Fix2,stimuli/Wealth/41.jpg,right,51,right,0.731542862999049,1,Fix2-25,25
sub-11,Block3,Fix2,stimuli/Wealth/37.jpg,right,52,right,0.788553303002118,1,Fix2-26,26
sub-11,Block3,Fix1,stimuli/Dangerous/11.jpg,left,53,left,0.78006499500043,1,Fix1-13,13
sub-11,Block3,Cond,stimuli/School/53.jpg,right,54,right,1.30920989799779,1,Cond-16,16
sub-11,Block3,Fix1,stimuli/Dangerous/42.jpg,left,55,left,0.797909887001879,1,Fix1-14,14
sub-11,Block3,Fix1,stimuli/Dangerous/26.jpg,left,56,left,1.40471141799935,1,Fix1-15,15
sub-11,Block3,Fix1,stimuli/Dangerous/8.jpg,left,57,left,0.927770281999983,1,Fix1-16,16
sub-11,Block3,Fix1,stimuli/Dangerous/43.jpg,left,58,left,1.3677412850011,1,Fix1-17,17
sub-11,Block3,Fix1,stimuli/Dangerous/27.jpg,left,59,left,0.74993453299976,1,Fix1-18,18
sub-11,Block3,Fix1,stimuli/Dangerous/52.jpg,left,60,left,3.51312004799911,1,Fix1-19,19
sub-11,Block3,Fix2,stimuli/Wealth/27.jpg,right,61,right,0.670364237998001,1,Fix2-27,27
sub-11,Block3,Cond,stimuli/School/23.jpg,left,62,left,0.666077373000007,1,Cond-17,17
sub-11,Block3,Cond,stimuli/School/58.jpg,right,63,right,0.595317810002598,1,Cond-18,18
sub-11,Block3,Fix1,stimuli/Dangerous/39.jpg,left,64,left,0.932781138002611,1,Fix1-20,20
sub-11,Block3,Fix1,stimuli/Dangerous/21.jpg,left,65,left,0.816721819999657,1,Fix1-21,21
sub-11,Block3,Cond,stimuli/School/35.jpg,right,66,right,0.953192664997914,1,Cond-19,19
sub-11,Block3,Cond,stimuli/School/20.jpg,left,67,left,0.667178053998214,1,Cond-20,20
sub-11,Block3,Fix2,stimuli/Wealth/14.jpg,right,68,right,0.660530793000362,1,Fix2-28,28
sub-11,Block3,Cond,stimuli/School/0.jpg,left,69,left,1.55485203299759,1,Cond-21,21
sub-11,Block3,Fix2,stimuli/Wealth/1.jpg,right,70,right,1.59197431199937,1,Fix2-29,29
sub-11,Block3,Cond,stimuli/School/7.jpg,left,71,left,1.00343816999884,1,Cond-22,22
sub-11,Block3,Fix1,stimuli/Dangerous/1.jpg,left,72,left,1.28238165699804,1,Fix1-22,22
sub-11,Block3,Fix2,stimuli/Wealth/31.jpg,right,73,right,0.804884421999304,1,Fix2-30,30
sub-11,Block3,Fix2,stimuli/Wealth/32.jpg,right,74,right,0.65618222300327,1,Fix2-31,31
sub-11,Block3,Fix1,stimuli/Dangerous/31.jpg,left,75,left,0.972931680000329,1,Fix1-23,23
sub-11,Block3,Cond,stimuli/School/16.jpg,right,76,right,2.27040230200146,1,Cond-23,23
sub-11,Block3,Fix2,stimuli/Wealth/58.jpg,right,77,right,1.01136306999979,1,Fix2-32,32
sub-11,Block3,Fix2,stimuli/Wealth/0.jpg,right,78,right,0.705093534998014,1,Fix2-33,33
sub-11,Block3,Cond,stimuli/School/46.jpg,left,79,left,2.82643848699809,1,Cond-24,24
sub-11,Block3,Fix1,stimuli/Dangerous/34.jpg,left,80,left,1.56988941699819,1,Fix1-24,24
sub-11,Block3,Fix2,stimuli/Wealth/22.jpg,right,81,right,0.829011234996869,1,Fix2-34,34
sub-11,Block3,Fix1,stimuli/Dangerous/49.jpg,left,82,left,0.840425051999773,1,Fix1-25,25
sub-11,Block3,Fix1,stimuli/Dangerous/56.jpg,left,83,left,0.818606237000495,1,Fix1-26,26
sub-11,Block3,Fix1,stimuli/Dangerous/5.jpg,left,84,left,0.81828562499868,1,Fix1-27,27
sub-11,Block3,Fix2,stimuli/Wealth/47.jpg,right,85,right,4.81399913299902,1,Fix2-35,35
sub-11,Block3,Cond,stimuli/School/3.jpg,left,86,left,0.905411872001423,1,Cond-25,25
sub-11,Block3,Cond,stimuli/School/29.jpg,right,87,right,0.560799376999057,1,Cond-26,26
sub-11,Block3,Fix2,stimuli/Wealth/56.jpg,right,88,right,2.31330988300033,1,Fix2-36,36
sub-11,Block3,Cond,stimuli/School/11.jpg,left,89,left,0.719971889997396,1,Cond-27,27
sub-11,Block3,Cond,stimuli/School/32.jpg,right,90,right,5.00668307199885,1,Cond-28,28
sub-11,Block3,Fix1,stimuli/Dangerous/14.jpg,left,91,left,0.647867862997373,1,Fix1-28,28
sub-11,Block3,Cond,stimuli/School/2.jpg,right,92,right,0.930416412000341,1,Cond-29,29
sub-11,Block3,Fix1,stimuli/Dangerous/24.jpg,left,93,left,0.805573962999915,1,Fix1-29,29
sub-11,Block3,Cond,stimuli/School/6.jpg,right,94,left,0.580396781999298,0,Cond-30,30
sub-11,Block3,Cond,stimuli/School/26.jpg,left,95,right,3.90695671499998,0,Cond-31,31
sub-11,Block3,Fix2,stimuli/Wealth/35.jpg,right,96,right,0.670166932002758,1,Fix2-37,37
sub-11,Block3,Fix2,stimuli/Wealth/55.jpg,right,97,right,1.01706001799903,1,Fix2-38,38
sub-11,Block3,Fix2,stimuli/Wealth/50.jpg,right,98,right,0.795368009999947,1,Fix2-39,39
sub-11,Block3,Cond,stimuli/School/45.jpg,left,99,left,0.810060166000767,1,Cond-32,32
sub-11,Block3,Cond,stimuli/School/48.jpg,right,100,right,1.41089713699694,1,Cond-33,33
sub-11,Block3,Fix2,stimuli/Wealth/48.jpg,right,101,right,1.01931827000226,1,Fix2-40,40
sub-11,Block3,Cond,stimuli/School/22.jpg,left,102,left,0.832762204998289,1,Cond-34,34
sub-11,Block3,Fix1,stimuli/Dangerous/7.jpg,left,103,left,0.813737082000443,1,Fix1-30,30
sub-11,Block3,Cond,stimuli/School/47.jpg,right,104,right,0.728027910001401,1,Cond-35,35
sub-11,Block3,Cond,stimuli/School/18.jpg,left,105,left,4.51588163999986,1,Cond-36,36
sub-11,Block3,Fix1,stimuli/Dangerous/19.jpg,left,106,left,1.01310481499968,1,Fix1-31,31
sub-11,Block3,Fix1,stimuli/Dangerous/25.jpg,left,107,left,0.749770024998725,1,Fix1-32,32
sub-11,Block3,Cond,stimuli/School/21.jpg,right,108,right,3.29439038200144,1,Cond-37,37
sub-11,Block3,Fix1,stimuli/Dangerous/30.jpg,left,109,left,1.04959243700068,1,Fix1-33,33
sub-11,Block3,Fix2,stimuli/Wealth/46.jpg,right,110,right,0.764495655002975,1,Fix2-41,41
sub-11,Block3,Cond,stimuli/School/38.jpg,left,111,left,1.0902185949999,1,Cond-38,38
sub-11,Block3,Fix1,stimuli/Dangerous/41.jpg,left,112,left,1.00271859499844,1,Fix1-34,34
sub-11,Block3,Fix2,stimuli/Wealth/16.jpg,right,113,right,0.626887660000648,1,Fix2-42,42
sub-11,Block3,Fix2,stimuli/Wealth/42.jpg,right,114,left,2.13911610500145,0,Fix2-43,43
sub-11,Block3,Fix1,stimuli/Dangerous/6.jpg,left,115,left,1.11213119799868,1,Fix1-35,35
sub-11,Block3,Fix2,stimuli/Wealth/59.jpg,right,116,right,2.05378460000065,1,Fix2-44,44
sub-11,Block3,Fix2,stimuli/Wealth/43.jpg,right,117,right,1.53658740799801,1,Fix2-45,45
sub-11,Block3,Fix1,stimuli/Dangerous/22.jpg,left,118,left,0.794128235000244,1,Fix1-36,36
sub-11,Block3,Fix1,stimuli/Dangerous/50.jpg,left,119,left,1.16146617200138,1,Fix1-37,37
sub-11,Block3,Fix2,stimuli/Wealth/49.jpg,right,120,right,0.917823345000215,1,Fix2-46,46
sub-11,Block3,Cond,stimuli/School/33.jpg,left,121,left,11.088720265001,1,Cond-39,39
sub-11,Block3,Fix1,stimuli/Dangerous/12.jpg,left,122,left,0.832365581998602,1,Fix1-38,38
sub-11,Block3,Fix2,stimuli/Wealth/33.jpg,right,123,right,2.2962036400022,1,Fix2-47,47
sub-11,Block3,Fix1,stimuli/Dangerous/51.jpg,left,124,left,0.79966971000249,1,Fix1-39,39
sub-11,Block3,Cond,stimuli/School/5.jpg,right,125,right,1.23983930700342,1,Cond-40,40
sub-11,Block3,Cond,stimuli/School/12.jpg,left,126,left,2.31759079500262,1,Cond-41,41
sub-11,Block3,Fix1,stimuli/Dangerous/13.jpg,left,127,left,4.19621823000125,1,Fix1-40,40
sub-11,Block3,Cond,stimuli/School/14.jpg,right,128,right,1.34512052499849,1,Cond-42,42
sub-11,Block3,Fix1,stimuli/Dangerous/16.jpg,left,129,left,0.826735664999433,1,Fix1-41,41
sub-11,Block3,Fix1,stimuli/Dangerous/40.jpg,left,130,left,0.806587426999613,1,Fix1-42,42
sub-11,Block3,Fix2,stimuli/Wealth/13.jpg,right,131,right,0.632069889998093,1,Fix2-48,48
sub-11,Block3,Fix2,stimuli/Wealth/11.jpg,right,132,right,0.824199679998856,1,Fix2-49,49
sub-11,Block3,Cond,stimuli/School/43.jpg,left,133,left,0.900765135000256,1,Cond-43,43
sub-11,Block3,Fix1,stimuli/Dangerous/29.jpg,left,134,left,0.739058064998972,1,Fix1-43,43
sub-11,Block3,Fix1,stimuli/Dangerous/57.jpg,left,135,left,0.841548120002699,1,Fix1-44,44
sub-11,Block3,Fix2,stimuli/Wealth/29.jpg,right,136,right,0.595998319997307,1,Fix2-50,50
sub-11,Block3,Cond,stimuli/School/25.jpg,left,137,right,0.53864927000177,0,Cond-44,44
sub-11,Block3,Fix1,stimuli/Dangerous/36.jpg,left,138,left,0.82271788000071,1,Fix1-45,45
sub-11,Block3,Cond,stimuli/School/19.jpg,right,139,right,2.96708676499838,1,Cond-45,45
sub-11,Block3,Cond,stimuli/School/36.jpg,left,140,left,0.550755804997607,1,Cond-46,46
sub-11,Block3,Fix1,stimuli/Dangerous/18.jpg,left,141,left,1.43289846699918,1,Fix1-46,46
sub-11,Block3,Cond,stimuli/School/31.jpg,right,142,right,1.01852185200187,1,Cond-47,47
sub-11,Block3,Fix2,stimuli/Wealth/34.jpg,right,143,right,0.647951484999794,1,Fix2-51,51
sub-11,Block3,Cond,stimuli/School/50.jpg,left,144,left,0.683924411998305,1,Cond-48,48
sub-11,Block3,Cond,stimuli/School/13.jpg,right,145,right,0.979339199999231,1,Cond-49,49
sub-11,Block3,Cond,stimuli/School/52.jpg,left,146,left,1.07244958299998,1,Cond-50,50
sub-11,Block3,Fix1,stimuli/Dangerous/46.jpg,left,147,left,1.00783146199683,1,Fix1-47,47
sub-11,Block3,Cond,stimuli/School/39.jpg,right,148,right,0.650615579997975,1,Cond-51,51
sub-11,Block3,Fix2,stimuli/Wealth/25.jpg,right,149,right,3.67524826000226,1,Fix2-52,52
sub-11,Block3,Fix2,stimuli/Wealth/15.jpg,right,150,right,0.885746298001322,1,Fix2-53,53
sub-11,Block3,Cond,stimuli/School/40.jpg,left,151,left,0.839056232998701,1,Cond-52,52
sub-11,Block3,Fix1,stimuli/Dangerous/37.jpg,left,152,left,4.52923063699927,1,Fix1-48,48
sub-11,Block3,Fix1,stimuli/Dangerous/4.jpg,left,153,left,1.25277658300183,1,Fix1-49,49
sub-11,Block3,Fix1,stimuli/Dangerous/10.jpg,left,154,left,1.39466522000293,1,Fix1-50,50
sub-11,Block3,Cond,stimuli/School/57.jpg,right,155,right,1.00913006499832,1,Cond-53,53
sub-11,Block3,Cond,stimuli/School/15.jpg,left,156,left,0.825832564998564,1,Cond-54,54
sub-11,Block3,Fix1,stimuli/Dangerous/55.jpg,left,157,left,0.965063604999159,1,Fix1-51,51
sub-11,Block3,Fix1,stimuli/Dangerous/33.jpg,left,158,left,0.894718594998267,1,Fix1-52,52
sub-11,Block3,Cond,stimuli/School/44.jpg,right,159,right,4.59000939800171,1,Cond-55,55
sub-11,Block3,Fix2,stimuli/Wealth/8.jpg,right,160,right,0.714218624998466,1,Fix2-54,54
sub-11,Block3,Cond,stimuli/School/1.jpg,left,161,left,3.08975972199914,1,Cond-56,56
sub-11,Block3,Fix1,stimuli/Dangerous/0.jpg,left,162,left,0.852110795000044,1,Fix1-53,53
sub-11,Block3,Cond,stimuli/School/59.jpg,right,163,right,1.16519754500041,1,Cond-57,57
sub-11,Block3,Cond,stimuli/School/49.jpg,left,164,left,1.34453266499986,1,Cond-58,58
sub-11,Block3,Fix2,stimuli/Wealth/24.jpg,right,165,left,10.8636063329977,0,Fix2-55,55
sub-11,Block3,Fix2,stimuli/Wealth/9.jpg,right,166,right,0.567332598002395,1,Fix2-56,56
sub-11,Block3,Fix1,stimuli/Dangerous/23.jpg,left,167,left,0.844205961999251,1,Fix1-54,54
sub-11,Block3,Fix2,stimuli/Wealth/4.jpg,right,168,left,1.62164935799956,0,Fix2-57,57
sub-11,Block3,Fix1,stimuli/Dangerous/38.jpg,left,169,right,1.56335801500245,0,Fix1-55,55
sub-11,Block3,Fix2,stimuli/Wealth/7.jpg,right,170,right,0.726003404997755,1,Fix2-58,58
sub-11,Block3,Fix1,stimuli/Dangerous/28.jpg,left,171,left,0.98518054699889,1,Fix1-56,56
sub-11,Block3,Fix2,stimuli/Wealth/19.jpg,right,172,right,0.627663585000846,1,Fix2-59,59
sub-11,Block3,Cond,stimuli/School/41.jpg,left,173,left,0.752931787999842,1,Cond-59,59
sub-11,Block3,Fix1,stimuli/Dangerous/20.jpg,left,174,left,1.30821025000114,1,Fix1-57,57
sub-11,Block3,Fix1,stimuli/Dangerous/44.jpg,left,175,left,0.910518554999726,1,Fix1-58,58
sub-11,Block3,Fix1,stimuli/Dangerous/9.jpg,left,176,left,0.674119884999527,1,Fix1-59,59
sub-11,Block3,Cond,stimuli/School/54.jpg,right,177,right,0.791462037999736,1,Cond-60,60
sub-11,Block3,Fix1,stimuli/Dangerous/54.jpg,left,178,left,0.834932679998019,1,Fix1-60,60
sub-11,Block3,Fix2,stimuli/Wealth/2.jpg,right,179,right,0.780411035000725,1,Fix2-60,60
sub-12,Block1,Fix1,stimuli/Healthy/33.jpg,right,0,left,2.09315277800124,0,Fix1-1,1
sub-12,Block1,Fix1,stimuli/Healthy/6.jpg,right,1,right,0.732644610001444,1,Fix1-2,2
sub-12,Block1,Fix2,stimuli/Old/8.jpg,left,2,left,1.53581367300285,1,Fix2-1,1
sub-12,Block1,Fix1,stimuli/Healthy/3.jpg,right,3,right,1.48927190299946,1,Fix1-3,3
sub-12,Block1,Fix2,stimuli/Old/27.jpg,left,4,left,2.68166275000112,1,Fix2-2,2
sub-12,Block1,Cond,stimuli/Wealth/56.jpg,right,5,right,2.08037991200035,1,Cond-1,1
sub-12,Block1,Fix2,stimuli/Old/45.jpg,left,6,left,2.82220416500058,1,Fix2-3,3
sub-12,Block1,Fix2,stimuli/Old/52.jpg,left,7,right,2.17217707300006,0,Fix2-4,4
sub-12,Block1,Fix1,stimuli/Healthy/37.jpg,right,8,right,0.975347447001695,1,Fix1-4,4
sub-12,Block1,Fix1,stimuli/Healthy/17.jpg,right,9,right,0.681327484999201,1,Fix1-5,5
sub-12,Block1,Fix1,stimuli/Healthy/51.jpg,right,10,right,0.634363940000185,1,Fix1-6,6
sub-12,Block1,Fix2,stimuli/Old/55.jpg,left,11,left,1.69887040200047,1,Fix2-5,5
sub-12,Block1,Cond,stimuli/Wealth/43.jpg,right,12,left,0.709275402001367,0,Cond-2,2
sub-12,Block1,Cond,stimuli/Wealth/34.jpg,left,13,left,1.31768023000041,1,Cond-3,3
sub-12,Block1,Fix2,stimuli/Old/41.jpg,left,14,left,1.35679979199995,1,Fix2-6,6
sub-12,Block1,Cond,stimuli/Wealth/49.jpg,right,15,right,1.641796660002,1,Cond-4,4
sub-12,Block1,Fix2,stimuli/Old/22.jpg,left,16,right,1.97116554500099,0,Fix2-7,7
sub-12,Block1,Fix2,stimuli/Old/59.jpg,left,17,left,1.05407677499898,1,Fix2-8,8
sub-12,Block1,Fix2,stimuli/Old/14.jpg,left,18,left,2.5869737849971,1,Fix2-9,9
sub-12,Block1,Fix1,stimuli/Healthy/32.jpg,right,19,right,1.07991884199873,1,Fix1-7,7
sub-12,Block1,Fix1,stimuli/Healthy/35.jpg,right,20,right,3.34620432000156,1,Fix1-8,8
sub-12,Block1,Fix1,stimuli/Healthy/55.jpg,right,21,right,0.722529496000789,1,Fix1-9,9
sub-12,Block1,Fix1,stimuli/Healthy/40.jpg,right,22,right,1.16541153499929,1,Fix1-10,10
sub-12,Block1,Cond,stimuli/Wealth/28.jpg,left,23,left,1.03171557799942,1,Cond-5,5
sub-12,Block1,Cond,stimuli/Wealth/9.jpg,right,24,left,2.57805340699997,0,Cond-6,6
sub-12,Block1,Fix1,stimuli/Healthy/18.jpg,right,25,right,0.66425425000125,1,Fix1-11,11
sub-12,Block1,Fix1,stimuli/Healthy/12.jpg,right,26,left,4.40875044999848,0,Fix1-12,12
sub-12,Block1,Fix1,stimuli/Healthy/28.jpg,right,27,right,0.782932785001321,1,Fix1-13,13
sub-12,Block1,Fix1,stimuli/Healthy/2.jpg,right,28,right,0.991750831999525,1,Fix1-14,14
sub-12,Block1,Fix1,stimuli/Healthy/63.jpg,right,29,right,1.61923221500183,1,Fix1-15,15
sub-12,Block1,Fix2,stimuli/Old/3.jpg,left,30,left,3.85539278999931,1,Fix2-10,10
sub-12,Block1,Cond,stimuli/Wealth/57.jpg,right,31,left,2.07235964999927,0,Cond-7,7
sub-12,Block1,Fix1,stimuli/Healthy/52.jpg,right,32,right,0.53241962699758,1,Fix1-16,16
sub-12,Block1,Fix2,stimuli/Old/9.jpg,left,33,left,1.06753510199997,1,Fix2-11,11
sub-12,Block1,Fix2,stimuli/Old/2.jpg,left,34,left,1.50035077000211,1,Fix2-12,12
sub-12,Block1,Cond,stimuli/Wealth/15.jpg,right,35,right,0.890518034997513,1,Cond-8,8
sub-12,Block1,Fix1,stimuli/Healthy/66.jpg,right,36,right,0.748462345000007,1,Fix1-17,17
sub-12,Block1,Fix2,stimuli/Old/10.jpg,left,37,left,0.914396723001119,1,Fix2-13,13
sub-12,Block1,Fix1,stimuli/Healthy/47.jpg,right,38,right,0.839937052998721,1,Fix1-18,18
sub-12,Block1,Cond,stimuli/Wealth/12.jpg,left,39,left,0.727619735000189,1,Cond-9,9
sub-12,Block1,Fix2,stimuli/Old/50.jpg,left,40,left,0.85605357500026,1,Fix2-14,14
sub-12,Block1,Fix1,stimuli/Healthy/14.jpg,right,41,right,0.801493730003131,1,Fix1-19,19
sub-12,Block1,Fix2,stimuli/Old/21.jpg,left,42,left,1.10872978300176,1,Fix2-15,15
sub-12,Block1,Fix2,stimuli/Old/19.jpg,left,43,left,1.46717381499911,1,Fix2-16,16
sub-12,Block1,Fix2,stimuli/Old/11.jpg,left,44,right,0.678348329998698,0,Fix2-17,17
sub-12,Block1,Fix2,stimuli/Old/58.jpg,left,45,left,0.848438662997069,1,Fix2-18,18
sub-12,Block1,Fix2,stimuli/Old/6.jpg,left,46,left,0.783806513001764,1,Fix2-19,19
sub-12,Block1,Fix2,stimuli/Old/26.jpg,left,47,left,1.81440281499818,1,Fix2-20,20
sub-12,Block1,Fix2,stimuli/Old/0.jpg,left,48,left,4.92432541000016,1,Fix2-21,21
sub-12,Block1,Fix1,stimuli/Healthy/49.jpg,right,49,right,15.7976599870017,1,Fix1-20,20
sub-12,Block1,Fix1,stimuli/Healthy/62.jpg,right,50,right,2.83557217999987,1,Fix1-21,21
sub-12,Block1,Fix1,stimuli/Healthy/21.jpg,right,51,right,0.725252801999886,1,Fix1-22,22
sub-12,Block1,Cond,stimuli/Wealth/58.jpg,left,52,left,3.64462635000018,1,Cond-10,10
sub-12,Block1,Fix2,stimuli/Old/25.jpg,left,53,left,1.55615897000098,1,Fix2-22,22
sub-12,Block1,Fix1,stimuli/Healthy/9.jpg,right,54,right,0.622324506999576,1,Fix1-23,23
sub-12,Block1,Fix2,stimuli/Old/24.jpg,left,55,left,1.57123514000341,1,Fix2-23,23
sub-12,Block1,Fix2,stimuli/Old/29.jpg,left,56,left,1.16242970199892,1,Fix2-24,24
sub-12,Block1,Fix1,stimuli/Healthy/58.jpg,right,57,right,0.649572873000579,1,Fix1-24,24
sub-12,Block1,Cond,stimuli/Wealth/6.jpg,left,58,left,3.73361793299773,1,Cond-11,11
sub-12,Block1,Fix2,stimuli/Old/40.jpg,left,59,left,1.10250749199986,1,Fix2-25,25
sub-12,Block1,Fix1,stimuli/Healthy/44.jpg,right,60,right,0.55612983300307,1,Fix1-25,25
sub-12,Block1,Fix1,stimuli/Healthy/39.jpg,right,61,left,5.56133699199927,0,Fix1-26,26
sub-12,Block1,Fix2,stimuli/Old/4.jpg,left,62,left,2.54014946199823,1,Fix2-26,26
sub-12,Block1,Cond,stimuli/Wealth/1.jpg,right,63,right,2.50958355499824,1,Cond-12,12
sub-12,Block1,Cond,stimuli/Wealth/24.jpg,left,64,right,6.42363634299909,0,Cond-13,13
sub-12,Block1,Cond,stimuli/Wealth/32.jpg,right,65,left,0.983134252997843,0,Cond-14,14
sub-12,Block1,Cond,stimuli/Wealth/37.jpg,left,66,left,10.861279015,1,Cond-15,15
sub-12,Block1,Fix1,stimuli/Healthy/11.jpg,right,67,right,0.778024564999214,1,Fix1-27,27
sub-12,Block1,Cond,stimuli/Wealth/50.jpg,left,68,left,2.24290941300205,1,Cond-16,16
sub-12,Block1,Cond,stimuli/Wealth/45.jpg,right,69,right,2.60888607000015,1,Cond-17,17
sub-12,Block1,Cond,stimuli/Wealth/27.jpg,left,70,left,2.33324357499805,1,Cond-18,18
sub-12,Block1,Fix2,stimuli/Old/7.jpg,left,71,left,0.700710458000685,1,Fix2-27,27
sub-12,Block1,Fix1,stimuli/Healthy/24.jpg,right,72,right,0.455813173000934,1,Fix1-28,28
sub-12,Block1,Fix2,stimuli/Old/36.jpg,left,73,left,0.775938659997337,1,Fix2-28,28
sub-12,Block1,Fix1,stimuli/Healthy/69.jpg,right,74,right,0.902978300000541,1,Fix1-29,29
sub-12,Block1,Fix2,stimuli/Old/13.jpg,left,75,left,0.794944994999241,1,Fix2-29,29
sub-12,Block1,Cond,stimuli/Wealth/14.jpg,right,76,right,1.39833494999766,1,Cond-19,19
sub-12,Block1,Fix2,stimuli/Old/5.jpg,left,77,left,2.35230005999983,1,Fix2-30,30
sub-12,Block1,Fix1,stimuli/Healthy/8.jpg,right,78,right,0.542943054999341,1,Fix1-30,30
sub-12,Block1,Fix1,stimuli/Healthy/27.jpg,right,79,right,27.8790276549989,1,Fix1-31,31
sub-12,Block1,Fix1,stimuli/Healthy/46.jpg,right,80,right,0.909384282000246,1,Fix1-32,32
sub-12,Block1,Cond,stimuli/Wealth/4.jpg,left,81,left,1.23306497999874,1,Cond-20,20
sub-12,Block1,Fix1,stimuli/Healthy/5.jpg,right,82,right,15.7758972219999,1,Fix1-33,33
sub-12,Block1,Fix2,stimuli/Old/31.jpg,left,83,left,0.618131840001297,1,Fix2-31,31
sub-12,Block1,Fix1,stimuli/Healthy/45.jpg,right,84,right,34.9122113319972,1,Fix1-34,34
sub-12,Block1,Fix2,stimuli/Old/34.jpg,left,85,left,0.782686958002159,1,Fix2-32,32
sub-12,Block1,Cond,stimuli/Wealth/46.jpg,right,86,right,1.18560630000138,1,Cond-21,21
sub-12,Block1,Fix1,stimuli/Healthy/68.jpg,right,87,right,1.02523493999979,1,Fix1-35,35
sub-12,Block1,Fix2,stimuli/Old/37.jpg,left,88,left,0.529205098002421,1,Fix2-33,33
sub-12,Block1,Cond,stimuli/Wealth/31.jpg,right,89,right,48.2375592800017,1,Cond-22,22
sub-12,Block1,Fix1,stimuli/Healthy/15.jpg,right,90,right,0.687806750000163,1,Fix1-36,36
sub-12,Block1,Fix2,stimuli/Old/48.jpg,left,91,left,1.64038557000094,1,Fix2-34,34
sub-12,Block1,Fix1,stimuli/Healthy/26.jpg,right,92,right,0.725686800000403,1,Fix1-37,37
sub-12,Block1,Fix1,stimuli/Healthy/61.jpg,right,93,right,0.544928389997949,1,Fix1-38,38
sub-12,Block1,Cond,stimuli/Wealth/11.jpg,left,94,left,0.932917419999285,1,Cond-23,23
sub-12,Block1,Cond,stimuli/Wealth/2.jpg,right,95,right,1.7245216750016,1,Cond-24,24
sub-12,Block1,Cond,stimuli/Wealth/25.jpg,left,96,right,0.500396797000576,0,Cond-25,25
sub-12,Block1,Cond,stimuli/Wealth/5.jpg,right,97,left,2.80790312499812,0,Cond-26,26
sub-12,Block1,Cond,stimuli/Wealth/59.jpg,left,98,left,0.6448018029987,1,Cond-27,27
sub-12,Block1,Fix1,stimuli/Healthy/30.jpg,right,99,right,0.543063260000054,1,Fix1-39,39
sub-12,Block1,Fix2,stimuli/Old/12.jpg,left,100,left,0.590150272000756,1,Fix2-35,35
sub-12,Block1,Cond,stimuli/Wealth/55.jpg,right,101,right,1.1576173220019,1,Cond-28,28
sub-12,Block1,Fix1,stimuli/Healthy/1.jpg,right,102,right,0.701315753001836,1,Fix1-40,40
sub-12,Block1,Cond,stimuli/Wealth/53.jpg,left,103,left,0.954387378002139,1,Cond-29,29
sub-12,Block1,Fix1,stimuli/Healthy/19.jpg,right,104,right,0.559304499998689,1,Fix1-41,41
sub-12,Block1,Cond,stimuli/Wealth/20.jpg,left,105,left,1.75584472700211,1,Cond-30,30
sub-12,Block1,Fix1,stimuli/Healthy/48.jpg,right,106,right,0.620679510000627,1,Fix1-42,42
sub-12,Block1,Fix2,stimuli/Old/44.jpg,left,107,left,0.845463159999781,1,Fix2-36,36
sub-12,Block1,Cond,stimuli/Wealth/16.jpg,right,108,right,1.06585392499983,1,Cond-31,31
sub-12,Block1,Fix2,stimuli/Old/46.jpg,left,109,left,2.17707484499988,1,Fix2-37,37
sub-12,Block1,Fix1,stimuli/Healthy/65.jpg,right,110,right,0.701429144999565,1,Fix1-43,43
sub-12,Block1,Cond,stimuli/Wealth/48.jpg,left,111,left,1.39755158499975,1,Cond-32,32
sub-12,Block1,Fix1,stimuli/Healthy/67.jpg,right,112,right,0.574384223000379,1,Fix1-44,44
sub-12,Block1,Cond,stimuli/Wealth/51.jpg,left,113,left,0.805202657000336,1,Cond-33,33
sub-12,Block1,Cond,stimuli/Wealth/42.jpg,right,114,right,1.29866134500116,1,Cond-34,34
sub-12,Block1,Cond,stimuli/Wealth/22.jpg,left,115,left,0.705843179999647,1,Cond-35,35
sub-12,Block1,Fix2,stimuli/Old/43.jpg,left,116,left,27.7859069930018,1,Fix2-38,38
sub-12,Block1,Fix2,stimuli/Old/49.jpg,left,117,left,0.724189362001198,1,Fix2-39,39
sub-12,Block1,Fix1,stimuli/Healthy/20.jpg,right,118,right,7.34379760299998,1,Fix1-45,45
sub-12,Block1,Fix2,stimuli/Old/53.jpg,left,119,left,0.576971029997367,1,Fix2-40,40
sub-12,Block1,Fix1,stimuli/Healthy/10.jpg,right,120,right,0.496829920000891,1,Fix1-46,46
sub-12,Block1,Cond,stimuli/Wealth/13.jpg,left,121,left,0.611162140001397,1,Cond-36,36
sub-12,Block1,Cond,stimuli/Wealth/10.jpg,right,122,left,0.990839224999945,0,Cond-37,37
sub-12,Block1,Fix1,stimuli/Healthy/64.jpg,right,123,right,0.741343592999328,1,Fix1-47,47
sub-12,Block1,Cond,stimuli/Wealth/35.jpg,left,124,left,1.27580942200075,1,Cond-38,38
sub-12,Block1,Cond,stimuli/Wealth/8.jpg,right,125,right,0.865137757999037,1,Cond-39,39
sub-12,Block1,Fix2,stimuli/Old/18.jpg,left,126,left,0.645867193001322,1,Fix2-41,41
sub-12,Block1,Fix1,stimuli/Healthy/34.jpg,right,127,right,0.583840618000977,1,Fix1-48,48
sub-12,Block1,Fix2,stimuli/Old/42.jpg,left,128,left,0.72215592199791,1,Fix2-42,42
sub-12,Block1,Fix1,stimuli/Healthy/36.jpg,right,129,right,0.64372988499963,1,Fix1-49,49
sub-12,Block1,Fix2,stimuli/Old/1.jpg,left,130,left,0.679050355000072,1,Fix2-43,43
sub-12,Block1,Cond,stimuli/Wealth/38.jpg,right,131,right,8.80998612500116,1,Cond-40,40
sub-12,Block1,Fix2,stimuli/Old/47.jpg,left,132,left,2.70388298000034,1,Fix2-44,44
sub-12,Block1,Cond,stimuli/Wealth/33.jpg,right,133,right,4.98826616699807,1,Cond-41,41
sub-12,Block1,Fix2,stimuli/Old/15.jpg,left,134,left,9.68061272499835,1,Fix2-45,45
sub-12,Block1,Fix2,stimuli/Old/33.jpg,left,135,left,2.89614038499712,1,Fix2-46,46
sub-12,Block1,Fix1,stimuli/Healthy/29.jpg,right,136,right,0.551356627998757,1,Fix1-50,50
sub-12,Block1,Fix2,stimuli/Old/20.jpg,left,137,left,1.03775663699707,1,Fix2-47,47
sub-12,Block1,Cond,stimuli/Wealth/3.jpg,right,138,left,1.28086018499744,0,Cond-42,42
sub-12,Block1,Fix1,stimuli/Healthy/60.jpg,right,139,right,3.29647629700048,1,Fix1-51,51
sub-12,Block1,Cond,stimuli/Wealth/0.jpg,left,140,left,1.61574907699833,1,Cond-43,43
sub-12,Block1,Fix2,stimuli/Old/17.jpg,left,141,left,1.00374117200045,1,Fix2-48,48
sub-12,Block1,Fix2,stimuli/Old/51.jpg,left,142,left,1.00737515500077,1,Fix2-49,49
sub-12,Block1,Fix2,stimuli/Old/38.jpg,left,143,left,1.77063666200047,1,Fix2-50,50
sub-12,Block1,Cond,stimuli/Wealth/19.jpg,right,144,right,0.832146616998216,1,Cond-44,44
sub-12,Block1,Fix2,stimuli/Old/32.jpg,left,145,left,0.603438950001873,1,Fix2-51,51
sub-12,Block1,Fix1,stimuli/Healthy/7.jpg,right,146,right,0.562898519998271,1,Fix1-52,52
sub-12,Block1,Cond,stimuli/Wealth/7.jpg,left,147,left,1.40363866000189,1,Cond-45,45
sub-12,Block1,Fix1,stimuli/Healthy/31.jpg,right,148,right,0.756180995002069,1,Fix1-53,53
sub-12,Block1,Cond,stimuli/Wealth/21.jpg,left,149,left,1.5681899379997,1,Cond-46,46
sub-12,Block1,Cond,stimuli/Wealth/40.jpg,right,150,left,13.2389581499992,0,Cond-47,47
sub-12,Block1,Cond,stimuli/Wealth/54.jpg,left,151,right,0.805285685000854,0,Cond-48,48
sub-12,Block1,Cond,stimuli/Wealth/23.jpg,right,152,right,0.737944265001715,1,Cond-49,49
sub-12,Block1,Cond,stimuli/Wealth/26.jpg,left,153,right,0.677437831000134,0,Cond-50,50
sub-12,Block1,Cond,stimuli/Wealth/30.jpg,right,154,left,6.10111379199952,0,Cond-51,51
sub-12,Block1,Fix1,stimuli/Healthy/59.jpg,right,155,right,0.758692442999745,1,Fix1-54,54
sub-12,Block1,Fix2,stimuli/Old/28.jpg,left,156,left,0.662510382000619,1,Fix2-52,52
sub-12,Block1,Fix1,stimuli/Healthy/41.jpg,right,157,right,8.84335547199953,1,Fix1-55,55
sub-12,Block1,Fix2,stimuli/Old/16.jpg,left,158,left,0.912612000000081,1,Fix2-53,53
sub-12,Block1,Cond,stimuli/Wealth/18.jpg,right,159,right,1.55331773000216,1,Cond-52,52
sub-12,Block1,Fix1,stimuli/Healthy/38.jpg,right,160,right,0.666375729997526,1,Fix1-56,56
sub-12,Block1,Fix1,stimuli/Healthy/57.jpg,right,161,right,1.83355148299961,1,Fix1-57,57
sub-12,Block1,Fix2,stimuli/Old/56.jpg,left,162,left,0.925315623000643,1,Fix2-54,54
sub-12,Block1,Cond,stimuli/Wealth/36.jpg,right,163,right,1.86928606199945,1,Cond-53,53
sub-12,Block1,Fix2,stimuli/Old/39.jpg,left,164,left,0.671343210000487,1,Fix2-55,55
sub-12,Block1,Fix1,stimuli/Healthy/13.jpg,right,165,right,2.21056993000093,1,Fix1-58,58
sub-12,Block1,Fix2,stimuli/Old/23.jpg,left,166,left,1.07008566299919,1,Fix2-56,56
sub-12,Block1,Cond,stimuli/Wealth/41.jpg,right,167,left,10.5070560399981,0,Cond-54,54
sub-12,Block1,Fix2,stimuli/Old/54.jpg,left,168,left,2.62615875800111,1,Fix2-57,57
sub-12,Block1,Fix2,stimuli/Old/57.jpg,left,169,left,0.678524375001871,1,Fix2-58,58
sub-12,Block1,Cond,stimuli/Wealth/44.jpg,right,170,right,1.1432917029997,1,Cond-55,55
sub-12,Block1,Cond,stimuli/Wealth/29.jpg,left,171,right,16.7717919450006,0,Cond-56,56
sub-12,Block1,Fix2,stimuli/Old/35.jpg,left,172,left,17.7913932820011,1,Fix2-59,59
sub-12,Block1,Cond,stimuli/Wealth/47.jpg,right,173,right,2.15054284300277,1,Cond-57,57
sub-12,Block1,Fix2,stimuli/Old/30.jpg,left,174,left,1.8475456849992,1,Fix2-60,60
sub-12,Block1,Fix1,stimuli/Healthy/43.jpg,right,175,right,1.35401597499731,1,Fix1-59,59
sub-12,Block1,Cond,stimuli/Wealth/39.jpg,left,176,left,0.62639063500319,1,Cond-58,58
sub-12,Block1,Cond,stimuli/Wealth/52.jpg,right,177,right,0.946820544999355,1,Cond-59,59
sub-12,Block1,Fix1,stimuli/Healthy/50.jpg,right,178,right,0.736205015000451,1,Fix1-60,60
sub-12,Block1,Cond,stimuli/Wealth/17.jpg,left,179,left,0.689683644999604,1,Cond-60,60
sub-12,Block2,Fix2,stimuli/Sad/6.jpg,left,0,left,2.15185281700178,1,Fix2-1,1
sub-12,Block2,Fix2,stimuli/Sad/11.jpg,left,1,left,0.731010118000995,1,Fix2-2,2
sub-12,Block2,Fix2,stimuli/Sad/23.jpg,left,2,left,0.532916035001108,1,Fix2-3,3
sub-12,Block2,Fix1,stimuli/School/43.jpg,right,3,right,1.18137122199914,1,Fix1-1,1
sub-12,Block2,Fix2,stimuli/Sad/30.jpg,left,4,left,0.668562642000325,1,Fix2-4,4
sub-12,Block2,Fix1,stimuli/School/46.jpg,right,5,right,2.71300474000236,1,Fix1-2,2
sub-12,Block2,Cond,stimuli/Soft/21.jpg,left,6,left,1.72817861499789,1,Cond-1,1
sub-12,Block2,Fix2,stimuli/Sad/26.jpg,left,7,left,1.54684561500108,1,Fix2-5,5
sub-12,Block2,Fix1,stimuli/School/27.jpg,right,8,right,1.43997539499833,1,Fix1-3,3
sub-12,Block2,Fix1,stimuli/School/11.jpg,right,9,right,1.7188725470005,1,Fix1-4,4
sub-12,Block2,Cond,stimuli/Soft/48.jpg,left,10,right,6.65891098200154,0,Cond-2,2
sub-12,Block2,Fix2,stimuli/Sad/47.jpg,left,11,left,0.907200663001277,1,Fix2-6,6
sub-12,Block2,Cond,stimuli/Soft/44.jpg,right,12,right,3.53294388499853,1,Cond-3,3
sub-12,Block2,Cond,stimuli/Soft/33.jpg,left,13,left,0.908266185000684,1,Cond-4,4
sub-12,Block2,Fix2,stimuli/Sad/53.jpg,left,14,left,0.567479599998478,1,Fix2-7,7
sub-12,Block2,Fix2,stimuli/Sad/2.jpg,left,15,left,0.500556689999939,1,Fix2-8,8
sub-12,Block2,Fix2,stimuli/Sad/58.jpg,left,16,left,0.575286962000973,1,Fix2-9,9
sub-12,Block2,Cond,stimuli/Soft/8.jpg,right,17,right,1.7856213649975,1,Cond-5,5
sub-12,Block2,Fix1,stimuli/School/59.jpg,right,18,left,1.90495909200035,0,Fix1-5,5
sub-12,Block2,Cond,stimuli/Soft/50.jpg,left,19,right,2.57888983000157,0,Cond-6,6
sub-12,Block2,Fix2,stimuli/Sad/41.jpg,left,20,left,0.92142086199965,1,Fix2-10,10
sub-12,Block2,Fix1,stimuli/School/32.jpg,right,21,left,1.96570251500088,0,Fix1-6,6
sub-12,Block2,Cond,stimuli/Soft/40.jpg,left,22,right,0.790140192999388,0,Cond-7,7
sub-12,Block2,Fix2,stimuli/Sad/25.jpg,left,23,left,2.26561917500294,1,Fix2-11,11
sub-12,Block2,Fix1,stimuli/School/49.jpg,right,24,right,4.45150608899712,1,Fix1-7,7
sub-12,Block2,Fix2,stimuli/Sad/24.jpg,left,25,left,0.665565844999946,1,Fix2-12,12
sub-12,Block2,Fix1,stimuli/School/56.jpg,right,26,right,1.25620668199917,1,Fix1-8,8
sub-12,Block2,Cond,stimuli/Soft/45.jpg,left,27,left,1.98719027799962,1,Cond-8,8
sub-12,Block2,Fix2,stimuli/Sad/57.jpg,left,28,left,5.98550109500138,1,Fix2-13,13
sub-12,Block2,Fix2,stimuli/Sad/51.jpg,left,29,left,11.7173361899986,1,Fix2-14,14
sub-12,Block2,Fix2,stimuli/Sad/56.jpg,left,30,left,0.995791080000345,1,Fix2-15,15
sub-12,Block2,Cond,stimuli/Soft/2.jpg,right,31,right,1.09980985699804,1,Cond-9,9
sub-12,Block2,Cond,stimuli/Soft/25.jpg,left,32,right,0.794587707001483,0,Cond-10,10
sub-12,Block2,Fix1,stimuli/School/17.jpg,right,33,right,1.37620261499978,1,Fix1-9,9
sub-12,Block2,Fix1,stimuli/School/51.jpg,right,34,right,0.855277476999618,1,Fix1-10,10
sub-12,Block2,Fix2,stimuli/Sad/3.jpg,left,35,left,5.68717874299909,1,Fix2-16,16
sub-12,Block2,Cond,stimuli/Soft/30.jpg,right,36,right,9.12715792800009,1,Cond-11,11
sub-12,Block2,Fix2,stimuli/Sad/32.jpg,left,37,left,1.00559890500153,1,Fix2-17,17
sub-12,Block2,Cond,stimuli/Soft/17.jpg,right,38,left,0.953816335000738,0,Cond-12,12
sub-12,Block2,Cond,stimuli/Soft/12.jpg,left,39,right,7.02350879000005,0,Cond-13,13
sub-12,Block2,Fix1,stimuli/School/21.jpg,right,40,right,1.84934432699811,1,Fix1-11,11
sub-12,Block2,Fix1,stimuli/School/9.jpg,right,41,right,0.741808604998369,1,Fix1-12,12
sub-12,Block2,Cond,stimuli/Soft/0.jpg,left,42,left,0.983947139997326,1,Cond-14,14
sub-12,Block2,Fix2,stimuli/Sad/44.jpg,left,43,left,0.617240457999287,1,Fix2-18,18
sub-12,Block2,Fix2,stimuli/Sad/20.jpg,left,44,left,0.60138832499797,1,Fix2-19,19
sub-12,Block2,Fix2,stimuli/Sad/10.jpg,left,45,left,0.815308943001583,1,Fix2-20,20
sub-12,Block2,Cond,stimuli/Soft/56.jpg,right,46,right,1.61886766299722,1,Cond-15,15
sub-12,Block2,Fix1,stimuli/School/54.jpg,right,47,right,3.11733639000158,1,Fix1-13,13
sub-12,Block2,Fix2,stimuli/Sad/50.jpg,left,48,left,0.620927583000594,1,Fix2-21,21
sub-12,Block2,Cond,stimuli/Soft/58.jpg,right,49,right,0.750511666999955,1,Cond-16,16
sub-12,Block2,Cond,stimuli/Soft/57.jpg,left,50,left,0.811553242001537,1,Cond-17,17
sub-12,Block2,Cond,stimuli/Soft/10.jpg,right,51,right,0.887148629000876,1,Cond-18,18
sub-12,Block2,Cond,stimuli/Soft/27.jpg,left,52,left,1.90145829299945,1,Cond-19,19
sub-12,Block2,Fix1,stimuli/School/58.jpg,right,53,right,1.36133449000044,1,Fix1-14,14
sub-12,Block2,Cond,stimuli/Soft/36.jpg,left,54,right,12.6157694950016,0,Cond-20,20
sub-12,Block2,Fix1,stimuli/School/15.jpg,right,55,right,0.722620194999763,1,Fix1-15,15
sub-12,Block2,Fix1,stimuli/School/35.jpg,right,56,right,4.48519811500228,1,Fix1-16,16
sub-12,Block2,Cond,stimuli/Soft/9.jpg,left,57,left,1.32151833999887,1,Cond-21,21
sub-12,Block2,Fix1,stimuli/School/19.jpg,right,58,right,1.69202908200168,1,Fix1-17,17
sub-12,Block2,Cond,stimuli/Soft/1.jpg,left,59,left,0.639239970001654,1,Cond-22,22
sub-12,Block2,Fix2,stimuli/Sad/54.jpg,left,60,left,0.543699592999474,1,Fix2-22,22
sub-12,Block2,Fix1,stimuli/School/20.jpg,right,61,right,0.867056137998588,1,Fix1-18,18
sub-12,Block2,Fix1,stimuli/School/16.jpg,right,62,right,1.45817636499851,1,Fix1-19,19
sub-12,Block2,Fix1,stimuli/School/52.jpg,right,63,right,2.24000393299866,1,Fix1-20,20
sub-12,Block2,Fix1,stimuli/School/48.jpg,right,64,right,2.91298793000169,1,Fix1-21,21
sub-12,Block2,Cond,stimuli/Soft/47.jpg,left,65,left,1.11663754500114,1,Cond-23,23
sub-12,Block2,Fix1,stimuli/School/3.jpg,right,66,right,0.770839428001636,1,Fix1-22,22
sub-12,Block2,Fix1,stimuli/School/7.jpg,right,67,right,1.0117398370021,1,Fix1-23,23
sub-12,Block2,Fix1,stimuli/School/57.jpg,right,68,right,0.98011693099761,1,Fix1-24,24
sub-12,Block2,Fix1,stimuli/School/6.jpg,right,69,right,0.65199186999962,1,Fix1-25,25
sub-12,Block2,Fix2,stimuli/Sad/16.jpg,left,70,left,0.618590655001753,1,Fix2-23,23
sub-12,Block2,Fix2,stimuli/Sad/1.jpg,left,71,left,1.06675108499985,1,Fix2-24,24
sub-12,Block2,Fix1,stimuli/School/50.jpg,right,72,right,1.4017596579979,1,Fix1-26,26
sub-12,Block2,Cond,stimuli/Soft/39.jpg,left,73,left,0.89357703999849,1,Cond-24,24
sub-12,Block2,Fix2,stimuli/Sad/45.jpg,left,74,left,1.00845679200211,1,Fix2-25,25
sub-12,Block2,Fix2,stimuli/Sad/27.jpg,left,75,left,1.47046621299887,1,Fix2-26,26
sub-12,Block2,Fix2,stimuli/Sad/59.jpg,left,76,left,0.499402153000119,1,Fix2-27,27
sub-12,Block2,Fix2,stimuli/Sad/46.jpg,left,77,left,0.581120178001584,1,Fix2-28,28
sub-12,Block2,Cond,stimuli/Soft/23.jpg,right,78,right,0.69431090499711,1,Cond-25,25
sub-12,Block2,Fix2,stimuli/Sad/21.jpg,left,79,left,0.668791042997327,1,Fix2-29,29
sub-12,Block2,Fix1,stimuli/School/39.jpg,right,80,right,2.80490116500005,1,Fix1-27,27
sub-12,Block2,Cond,stimuli/Soft/37.jpg,left,81,left,2.95349998500024,1,Cond-26,26
sub-12,Block2,Fix1,stimuli/School/18.jpg,right,82,right,1.23392230999889,1,Fix1-28,28
sub-12,Block2,Cond,stimuli/Soft/22.jpg,left,83,left,1.25950530499904,1,Cond-27,27
sub-12,Block2,Cond,stimuli/Soft/4.jpg,right,84,right,2.73704360000193,1,Cond-28,28
sub-12,Block2,Fix2,stimuli/Sad/43.jpg,left,85,left,10.2347258480004,1,Fix2-30,30
sub-12,Block2,Cond,stimuli/Soft/6.jpg,right,86,right,2.71442210999885,1,Cond-29,29
sub-12,Block2,Cond,stimuli/Soft/42.jpg,left,87,left,1.42307592699945,1,Cond-30,30
sub-12,Block2,Fix1,stimuli/School/2.jpg,right,88,right,2.54703579499983,1,Fix1-29,29
sub-12,Block2,Fix2,stimuli/Sad/13.jpg,left,89,left,0.731466929999442,1,Fix2-31,31
sub-12,Block2,Fix2,stimuli/Sad/39.jpg,left,90,right,6.08737063000081,0,Fix2-32,32
sub-12,Block2,Fix2,stimuli/Sad/14.jpg,left,91,left,0.713695787002507,1,Fix2-33,33
sub-12,Block2,Fix1,stimuli/School/29.jpg,right,92,right,0.766221778001636,1,Fix1-30,30
sub-12,Block2,Fix1,stimuli/School/4.jpg,right,93,right,0.569829456999287,1,Fix1-31,31
sub-12,Block2,Fix1,stimuli/School/24.jpg,right,94,right,0.746375785001874,1,Fix1-32,32
sub-12,Block2,Fix2,stimuli/Sad/37.jpg,left,95,left,0.63283272300032,1,Fix2-34,34
sub-12,Block2,Cond,stimuli/Soft/55.jpg,right,96,right,0.662766903999,1,Cond-31,31
sub-12,Block2,Cond,stimuli/Soft/49.jpg,left,97,left,2.23705670699928,1,Cond-32,32
sub-12,Block2,Cond,stimuli/Soft/32.jpg,right,98,right,3.70929877500021,1,Cond-33,33
sub-12,Block2,Cond,stimuli/Soft/16.jpg,left,99,left,2.00931393800056,1,Cond-34,34
sub-12,Block2,Cond,stimuli/Soft/31.jpg,right,100,right,1.94289868300257,1,Cond-35,35
sub-12,Block2,Cond,stimuli/Soft/43.jpg,left,101,right,2.0706084049998,0,Cond-36,36
sub-12,Block2,Fix2,stimuli/Sad/4.jpg,left,102,left,0.648141875000874,1,Fix2-35,35
sub-12,Block2,Fix1,stimuli/School/28.jpg,right,103,right,2.11980788499932,1,Fix1-33,33
sub-12,Block2,Cond,stimuli/Soft/7.jpg,left,104,left,1.86051090699766,1,Cond-37,37
sub-12,Block2,Fix1,stimuli/School/12.jpg,right,105,right,1.0033603180018,1,Fix1-34,34
sub-12,Block2,Cond,stimuli/Soft/38.jpg,left,106,left,0.642161593001219,1,Cond-38,38
sub-12,Block2,Fix2,stimuli/Sad/40.jpg,left,107,right,1.03779096799917,0,Fix2-36,36
sub-12,Block2,Fix2,stimuli/Sad/55.jpg,left,108,left,0.796169389999704,1,Fix2-37,37
sub-12,Block2,Fix2,stimuli/Sad/36.jpg,left,109,left,3.33332961700216,1,Fix2-38,38
sub-12,Block2,Fix2,stimuli/Sad/31.jpg,left,110,left,0.922768159998668,1,Fix2-39,39
sub-12,Block2,Fix1,stimuli/School/0.jpg,right,111,right,1.02356059000158,1,Fix1-35,35
sub-12,Block2,Cond,stimuli/Soft/18.jpg,left,112,left,11.9137677100007,1,Cond-39,39
sub-12,Block2,Fix2,stimuli/Sad/12.jpg,left,113,left,1.32190468000044,1,Fix2-40,40
sub-12,Block2,Fix1,stimuli/School/42.jpg,right,114,right,1.30262926400246,1,Fix1-36,36
sub-12,Block2,Cond,stimuli/Soft/26.jpg,left,115,left,14.1482604379999,1,Cond-40,40
sub-12,Block2,Cond,stimuli/Soft/34.jpg,right,116,right,2.6100736269982,1,Cond-41,41
sub-12,Block2,Cond,stimuli/Soft/46.jpg,left,117,left,4.39587973499874,1,Cond-42,42
sub-12,Block2,Cond,stimuli/Soft/5.jpg,right,118,right,1.98836441800086,1,Cond-43,43
sub-12,Block2,Cond,stimuli/Soft/14.jpg,left,119,left,1.37928309500057,1,Cond-44,44
sub-12,Block2,Fix1,stimuli/School/25.jpg,right,120,right,0.715975442002673,1,Fix1-37,37
sub-12,Block2,Fix2,stimuli/Sad/17.jpg,left,121,left,0.57748682500096,1,Fix2-41,41
sub-12,Block2,Fix1,stimuli/School/26.jpg,right,122,right,1.55825620999894,1,Fix1-38,38
sub-12,Block2,Fix2,stimuli/Sad/19.jpg,left,123,left,0.66488829300215,1,Fix2-42,42
sub-12,Block2,Fix1,stimuli/School/33.jpg,right,124,left,3.62301146299797,0,Fix1-39,39
sub-12,Block2,Fix2,stimuli/Sad/38.jpg,left,125,left,3.84017022199987,1,Fix2-43,43
sub-12,Block2,Fix1,stimuli/School/40.jpg,right,126,right,0.888151336999726,1,Fix1-40,40
sub-12,Block2,Cond,stimuli/Soft/29.jpg,left,127,left,0.904193372996815,1,Cond-45,45
sub-12,Block2,Fix1,stimuli/School/31.jpg,right,128,right,6.22838756000056,1,Fix1-41,41
sub-12,Block2,Fix1,stimuli/School/38.jpg,right,129,right,1.42145524300213,1,Fix1-42,42
sub-12,Block2,Fix2,stimuli/Sad/7.jpg,left,130,left,0.633310525001434,1,Fix2-44,44
sub-12,Block2,Fix2,stimuli/Sad/28.jpg,left,131,left,0.909885627999756,1,Fix2-45,45
sub-12,Block2,Fix1,stimuli/School/37.jpg,right,132,right,0.770972192000045,1,Fix1-43,43
sub-12,Block2,Fix2,stimuli/Sad/33.jpg,left,133,left,0.655882552000548,1,Fix2-46,46
sub-12,Block2,Cond,stimuli/Soft/59.jpg,right,134,right,2.2376980400004,1,Cond-46,46
sub-12,Block2,Fix1,stimuli/School/55.jpg,right,135,right,3.91994987499857,1,Fix1-44,44
sub-12,Block2,Fix2,stimuli/Sad/5.jpg,left,136,left,1.25850253799945,1,Fix2-47,47
sub-12,Block2,Fix2,stimuli/Sad/35.jpg,left,137,right,18.3408655819985,0,Fix2-48,48
sub-12,Block2,Fix1,stimuli/School/41.jpg,right,138,right,1.66533082500246,1,Fix1-45,45
sub-12,Block2,Fix1,stimuli/School/30.jpg,right,139,right,8.29658967000069,1,Fix1-46,46
sub-12,Block2,Fix2,stimuli/Sad/42.jpg,left,140,left,0.982957850003004,1,Fix2-49,49
sub-12,Block2,Fix2,stimuli/Sad/29.jpg,left,141,left,1.13875351000024,1,Fix2-50,50
sub-12,Block2,Cond,stimuli/Soft/52.jpg,right,142,right,1.50390328499998,1,Cond-47,47
sub-12,Block2,Fix1,stimuli/School/53.jpg,right,143,right,1.01587532700069,1,Fix1-47,47
sub-12,Block2,Fix1,stimuli/School/14.jpg,right,144,right,0.684444747999805,1,Fix1-48,48
sub-12,Block2,Fix1,stimuli/School/23.jpg,right,145,right,0.680747610000253,1,Fix1-49,49
sub-12,Block2,Cond,stimuli/Soft/15.jpg,left,146,left,0.71043422799994,1,Cond-48,48
sub-12,Block2,Fix2,stimuli/Sad/0.jpg,left,147,left,0.82889720899766,1,Fix2-51,51
sub-12,Block2,Cond,stimuli/Soft/35.jpg,right,148,right,1.21953006500189,1,Cond-49,49
sub-12,Block2,Cond,stimuli/Soft/53.jpg,left,149,left,3.67349603000184,1,Cond-50,50
sub-12,Block2,Cond,stimuli/Soft/3.jpg,right,150,right,1.8077317999996,1,Cond-51,51
sub-12,Block2,Fix1,stimuli/School/47.jpg,right,151,right,4.74241338000138,1,Fix1-50,50
sub-12,Block2,Cond,stimuli/Soft/19.jpg,left,152,left,5.23043084999881,1,Cond-52,52
sub-12,Block2,Cond,stimuli/Soft/24.jpg,right,153,right,0.680616817000555,1,Cond-53,53
sub-12,Block2,Fix2,stimuli/Sad/34.jpg,left,154,left,5.06422493199716,1,Fix2-52,52
sub-12,Block2,Fix1,stimuli/School/13.jpg,right,155,right,1.15894146499704,1,Fix1-51,51
sub-12,Block2,Fix2,stimuli/Sad/15.jpg,left,156,left,3.11677151700133,1,Fix2-53,53
sub-12,Block2,Fix1,stimuli/School/22.jpg,right,157,right,1.90741732800234,1,Fix1-52,52
sub-12,Block2,Cond,stimuli/Soft/28.jpg,left,158,left,1.53085190999991,1,Cond-54,54
sub-12,Block2,Fix1,stimuli/School/36.jpg,right,159,right,3.05499165299989,1,Fix1-53,53
sub-12,Block2,Fix1,stimuli/School/44.jpg,right,160,right,2.05194505299733,1,Fix1-54,54
sub-12,Block2,Cond,stimuli/Soft/41.jpg,left,161,left,3.5466734770016,1,Cond-55,55
sub-12,Block2,Fix1,stimuli/School/8.jpg,right,162,right,0.654033187998721,1,Fix1-55,55
sub-12,Block2,Fix2,stimuli/Sad/22.jpg,left,163,left,1.0659428550025,1,Fix2-54,54
sub-12,Block2,Cond,stimuli/Soft/20.JPG,right,164,right,1.62461661199995,1,Cond-56,56
sub-12,Block2,Fix2,stimuli/Sad/9.jpg,left,165,left,0.837427373000537,1,Fix2-55,55
sub-12,Block2,Cond,stimuli/Soft/54.jpg,right,166,right,2.50502617999882,1,Cond-57,57
sub-12,Block2,Fix2,stimuli/Sad/8.jpg,left,167,left,2.16975062300116,1,Fix2-56,56
sub-12,Block2,Fix2,stimuli/Sad/49.jpg,left,168,left,1.39972026300165,1,Fix2-57,57
sub-12,Block2,Fix1,stimuli/School/10.jpg,right,169,right,3.09746079199977,1,Fix1-56,56
sub-12,Block2,Fix1,stimuli/School/1.jpg,right,170,right,9.50638506999894,1,Fix1-57,57
sub-12,Block2,Cond,stimuli/Soft/13.jpg,left,171,left,2.1047264230001,1,Cond-58,58
sub-12,Block2,Cond,stimuli/Soft/11.jpg,right,172,left,0.635141842998564,0,Cond-59,59
sub-12,Block2,Fix1,stimuli/School/5.jpg,right,173,right,1.85181369999918,1,Fix1-58,58
sub-12,Block2,Fix1,stimuli/School/34.jpg,right,174,right,9.64004293999824,1,Fix1-59,59
sub-12,Block2,Fix2,stimuli/Sad/52.jpg,left,175,left,3.05458802499925,1,Fix2-58,58
sub-12,Block2,Cond,stimuli/Soft/51.jpg,right,176,right,0.950017355000455,1,Cond-60,60
sub-12,Block2,Fix2,stimuli/Sad/48.jpg,left,177,left,1.09569603499767,1,Fix2-59,59
sub-12,Block2,Fix2,stimuli/Sad/18.jpg,left,178,left,1.1596887429987,1,Fix2-60,60
sub-12,Block2,Fix1,stimuli/School/45.jpg,right,179,right,0.630168385003344,1,Fix1-60,60
sub-12,Block3,Fix1,stimuli/Smell/22.jpg,left,0,right,2.00604664500133,0,Fix1-1,1
sub-12,Block3,Cond,stimuli/Dangerous/3.jpg,right,1,left,0.994006040000386,0,Cond-1,1
sub-12,Block3,Fix2,stimuli/Small/37.jpg,right,2,left,1.34037469500254,0,Fix2-1,1
sub-12,Block3,Fix1,stimuli/Smell/50.jpg,left,3,left,1.52511937300005,1,Fix1-2,2
sub-12,Block3,Fix2,stimuli/Small/33.jpg,right,4,right,1.34710174000065,1,Fix2-2,2
sub-12,Block3,Fix2,stimuli/Small/60.jpg,right,5,left,1.23314669500178,0,Fix2-3,3
sub-12,Block3,Cond,stimuli/Dangerous/51.jpg,left,6,left,2.1514330530008,1,Cond-2,2
sub-12,Block3,Fix1,stimuli/Smell/34.jpg,left,7,left,2.53304626699901,1,Fix1-3,3
sub-12,Block3,Fix1,stimuli/Smell/51.jpg,left,8,left,0.762964015000762,1,Fix1-4,4
sub-12,Block3,Fix1,stimuli/Smell/4.jpg,left,9,left,0.658795757000917,1,Fix1-5,5
sub-12,Block3,Cond,stimuli/Dangerous/48.jpg,right,10,right,2.32931302699944,1,Cond-3,3
sub-12,Block3,Cond,stimuli/Dangerous/6.jpg,left,11,left,1.95137489000263,1,Cond-4,4
sub-12,Block3,Cond,stimuli/Dangerous/54.jpg,right,12,right,8.72141198499958,1,Cond-5,5
sub-12,Block3,Cond,stimuli/Dangerous/27.jpg,left,13,left,1.341187885002,1,Cond-6,6
sub-12,Block3,Fix1,stimuli/Smell/45.jpg,left,14,left,2.3924668519976,1,Fix1-6,6
sub-12,Block3,Fix2,stimuli/Small/1.jpg,right,15,right,3.55696902500131,1,Fix2-4,4
sub-12,Block3,Fix2,stimuli/Small/44.jpg,right,16,right,3.31102322999868,1,Fix2-5,5
sub-12,Block3,Fix1,stimuli/Smell/59.jpg,left,17,left,0.711291000003257,1,Fix1-7,7
sub-12,Block3,Fix1,stimuli/Smell/36.jpg,left,18,right,3.71940462000202,0,Fix1-8,8
sub-12,Block3,Fix2,stimuli/Small/50.jpg,right,19,left,2.0648469350017,0,Fix2-6,6
sub-12,Block3,Fix1,stimuli/Smell/11.jpg,left,20,left,1.55637095999919,1,Fix1-9,9
sub-12,Block3,Fix1,stimuli/Smell/30.jpg,left,21,left,2.1969814969998,1,Fix1-10,10
sub-12,Block3,Fix2,stimuli/Small/51.jpg,right,22,right,8.29869227000017,1,Fix2-7,7
sub-12,Block3,Fix1,stimuli/Smell/42.jpg,left,23,left,1.82941715199922,1,Fix1-11,11
sub-12,Block3,Cond,stimuli/Dangerous/37.jpg,right,24,right,1.7933353849985,1,Cond-7,7
sub-12,Block3,Fix2,stimuli/Small/19.jpg,right,25,right,2.51059715299925,1,Fix2-8,8
sub-12,Block3,Fix1,stimuli/Smell/14.jpg,left,26,left,1.73900947500078,1,Fix1-12,12
sub-12,Block3,Fix2,stimuli/Small/54.jpg,right,27,right,1.60975752800005,1,Fix2-9,9
sub-12,Block3,Fix1,stimuli/Smell/44.jpg,left,28,left,0.715364514999237,1,Fix1-13,13
sub-12,Block3,Fix2,stimuli/Small/46.jpg,right,29,right,0.916902862001734,1,Fix2-10,10
sub-12,Block3,Fix2,stimuli/Small/25.jpg,right,30,left,1.24606979000237,0,Fix2-11,11
sub-12,Block3,Cond,stimuli/Dangerous/10.jpg,left,31,right,1.44388543999958,0,Cond-8,8
sub-12,Block3,Fix2,stimuli/Small/43.jpg,right,32,left,0.748769360001461,0,Fix2-12,12
sub-12,Block3,Fix1,stimuli/Smell/47.jpg,left,33,left,15.1513196070009,1,Fix1-14,14
sub-12,Block3,Fix1,stimuli/Smell/17.jpg,left,34,left,1.50097100499988,1,Fix1-15,15
sub-12,Block3,Fix1,stimuli/Smell/28.jpg,left,35,left,1.78204385999925,1,Fix1-16,16
sub-12,Block3,Fix2,stimuli/Small/22.jpg,right,36,right,5.13434336199862,1,Fix2-13,13
sub-12,Block3,Cond,stimuli/Dangerous/14.jpg,left,37,left,2.50959784999941,1,Cond-9,9
sub-12,Block3,Fix2,stimuli/Small/27.jpg,right,38,right,1.54825164800059,1,Fix2-14,14
sub-12,Block3,Fix2,stimuli/Small/42.jpg,right,39,left,4.17065762999846,0,Fix2-15,15
sub-12,Block3,Cond,stimuli/Dangerous/18.jpg,left,40,right,2.81429456000114,0,Cond-10,10
sub-12,Block3,Cond,stimuli/Dangerous/8.jpg,right,41,right,3.60282980999909,1,Cond-11,11
sub-12,Block3,Fix1,stimuli/Smell/54.jpg,left,42,left,1.77303912700154,1,Fix1-17,17
sub-12,Block3,Fix2,stimuli/Small/24.jpg,right,43,right,16.0878503800013,1,Fix2-16,16
sub-12,Block3,Cond,stimuli/Dangerous/31.jpg,left,44,left,9.76074682499893,1,Cond-12,12
sub-12,Block3,Cond,stimuli/Dangerous/38.jpg,right,45,right,1.7638568049988,1,Cond-13,13
sub-12,Block3,Fix1,stimuli/Smell/23.jpg,left,46,left,0.865703216997645,1,Fix1-18,18
sub-12,Block3,Cond,stimuli/Dangerous/47.jpg,right,47,right,6.40098233199751,1,Cond-14,14
sub-12,Block3,Fix1,stimuli/Smell/27.jpg,left,48,left,3.5708535699996,1,Fix1-19,19
sub-12,Block3,Cond,stimuli/Dangerous/26.jpg,right,49,right,0.830564260002575,1,Cond-15,15
sub-12,Block3,Fix1,stimuli/Smell/10.jpg,left,50,left,1.19073712200043,1,Fix1-20,20
sub-12,Block3,Fix2,stimuli/Small/56.jpg,right,51,right,3.57769484699747,1,Fix2-17,17
sub-12,Block3,Fix2,stimuli/Small/0.jpg,right,52,right,1.9759620549994,1,Fix2-18,18
sub-12,Block3,Fix1,stimuli/Smell/56.jpg,left,53,left,3.57170228500036,1,Fix1-21,21
sub-12,Block3,Fix1,stimuli/Smell/2.jpg,left,54,left,1.84232409000106,1,Fix1-22,22
sub-12,Block3,Cond,stimuli/Dangerous/45.jpg,right,55,right,0.944454147997021,1,Cond-16,16
sub-12,Block3,Fix1,stimuli/Smell/55.jpg,left,56,left,0.814147074997891,1,Fix1-23,23
sub-12,Block3,Fix2,stimuli/Small/31.JPG,right,57,right,7.18455482499849,1,Fix2-19,19
sub-12,Block3,Cond,stimuli/Dangerous/39.jpg,left,58,left,2.90889249500106,1,Cond-17,17
sub-12,Block3,Fix1,stimuli/Smell/35.jpg,left,59,left,1.54944677199819,1,Fix1-24,24
sub-12,Block3,Fix1,stimuli/Smell/8.jpg,left,60,left,1.09210187500139,1,Fix1-25,25
sub-12,Block3,Cond,stimuli/Dangerous/33.jpg,right,61,right,5.49908428200069,1,Cond-18,18
sub-12,Block3,Cond,stimuli/Dangerous/40.jpg,left,62,left,1.03773363800065,1,Cond-19,19
sub-12,Block3,Fix1,stimuli/Smell/24.jpg,left,63,left,0.655263577002188,1,Fix1-26,26
sub-12,Block3,Cond,stimuli/Dangerous/34.jpg,right,64,right,3.84594162199937,1,Cond-20,20
sub-12,Block3,Fix2,stimuli/Small/14.jpg,right,65,left,0.957163250001031,0,Fix2-20,20
sub-12,Block3,Fix2,stimuli/Small/47.jpg,right,66,right,2.5927872100001,1,Fix2-21,21
sub-12,Block3,Cond,stimuli/Dangerous/5.jpg,left,67,left,1.12445563700021,1,Cond-21,21
sub-12,Block3,Fix1,stimuli/Smell/0.jpg,left,68,right,0.859242459999223,0,Fix1-27,27
sub-12,Block3,Fix1,stimuli/Smell/48.jpg,left,69,left,4.78149917500195,1,Fix1-28,28
sub-12,Block3,Fix2,stimuli/Small/2.jpg,right,70,right,0.876845786999183,1,Fix2-22,22
sub-12,Block3,Cond,stimuli/Dangerous/46.jpg,left,71,left,7.40761412799839,1,Cond-22,22
sub-12,Block3,Cond,stimuli/Dangerous/35.jpg,right,72,right,1.20789626800251,1,Cond-23,23
sub-12,Block3,Fix2,stimuli/Small/13.jpg,right,73,right,1.58309549199839,1,Fix2-23,23
sub-12,Block3,Fix2,stimuli/Small/30.jpg,right,74,left,3.00124548500025,0,Fix2-24,24
sub-12,Block3,Fix1,stimuli/Smell/9.jpg,left,75,left,3.37921317300061,1,Fix1-29,29
sub-12,Block3,Fix1,stimuli/Smell/1.jpg,left,76,left,0.750498419998621,1,Fix1-30,30
sub-12,Block3,Fix2,stimuli/Small/10.jpg,right,77,right,0.937173034999432,1,Fix2-25,25
sub-12,Block3,Cond,stimuli/Dangerous/4.jpg,left,78,left,1.05076359300074,1,Cond-24,24
sub-12,Block3,Fix1,stimuli/Smell/20.jpg,left,79,left,1.03326213000037,1,Fix1-31,31
sub-12,Block3,Fix1,stimuli/Smell/57.jpg,left,80,left,0.620897075001267,1,Fix1-32,32
sub-12,Block3,Cond,stimuli/Dangerous/32.jpg,right,81,right,0.953558291999798,1,Cond-25,25
sub-12,Block3,Cond,stimuli/Dangerous/21.jpg,left,82,left,1.01086546500301,1,Cond-26,26
sub-12,Block3,Cond,stimuli/Dangerous/36.jpg,right,83,right,0.619733165000071,1,Cond-27,27
sub-12,Block3,Fix1,stimuli/Smell/33.jpg,left,84,left,0.915985308001837,1,Fix1-33,33
sub-12,Block3,Fix2,stimuli/Small/15.jpg,right,85,right,0.887863177002146,1,Fix2-26,26
sub-12,Block3,Cond,stimuli/Dangerous/24.jpg,left,86,left,0.771880741998757,1,Cond-28,28
sub-12,Block3,Fix2,stimuli/Small/6.jpg,right,87,right,0.668147355001565,1,Fix2-27,27
sub-12,Block3,Fix1,stimuli/Smell/21.jpg,left,88,left,0.702174289999675,1,Fix1-34,34
sub-12,Block3,Fix1,stimuli/Smell/53.jpg,left,89,left,0.920454666997102,1,Fix1-35,35
sub-12,Block3,Cond,stimuli/Dangerous/20.jpg,right,90,right,0.991551909999544,1,Cond-29,29
sub-12,Block3,Fix2,stimuli/Small/20.jpg,right,91,left,2.51825103200099,0,Fix2-28,28
sub-12,Block3,Cond,stimuli/Dangerous/52.jpg,left,92,right,1.41720174500006,0,Cond-30,30
sub-12,Block3,Cond,stimuli/Dangerous/19.jpg,right,93,right,2.25984662300107,1,Cond-31,31
sub-12,Block3,Cond,stimuli/Dangerous/15.jpg,left,94,left,1.1349503800011,1,Cond-32,32
sub-12,Block3,Fix1,stimuli/Smell/6.jpg,left,95,left,1.02461997499995,1,Fix1-36,36
sub-12,Block3,Fix1,stimuli/Smell/37.jpg,left,96,left,0.621799399999873,1,Fix1-37,37
sub-12,Block3,Fix2,stimuli/Small/36.jpg,right,97,right,2.22669102299915,1,Fix2-29,29
sub-12,Block3,Cond,stimuli/Dangerous/12.jpg,left,98,left,1.04212617500161,1,Cond-33,33
sub-12,Block3,Fix1,stimuli/Smell/38.jpg,left,99,left,2.56234464700174,1,Fix1-38,38
sub-12,Block3,Fix2,stimuli/Small/55.jpg,right,100,left,2.4342988319986,0,Fix2-30,30
sub-12,Block3,Cond,stimuli/Dangerous/29.jpg,left,101,right,3.78921467499822,0,Cond-34,34
sub-12,Block3,Fix2,stimuli/Small/5.jpg,right,102,right,1.04721660499854,1,Fix2-31,31
sub-12,Block3,Cond,stimuli/Dangerous/23.jpg,left,103,left,1.19864872499966,1,Cond-35,35
sub-12,Block3,Fix1,stimuli/Smell/26.jpg,left,104,left,0.940112241998577,1,Fix1-39,39
sub-12,Block3,Cond,stimuli/Dangerous/49.jpg,right,105,right,0.73949429500135,1,Cond-36,36
sub-12,Block3,Cond,stimuli/Dangerous/22.jpg,left,106,left,1.64073362999989,1,Cond-37,37
sub-12,Block3,Fix1,stimuli/Smell/40.jpg,left,107,left,3.70446538299802,1,Fix1-40,40
sub-12,Block3,Fix2,stimuli/Small/16.jpg,right,108,right,0.939575594999042,1,Fix2-32,32
sub-12,Block3,Fix2,stimuli/Small/18.jpg,right,109,right,0.870690694999212,1,Fix2-33,33
sub-12,Block3,Fix2,stimuli/Small/35.jpg,right,110,right,0.449639827002102,1,Fix2-34,34
sub-12,Block3,Fix2,stimuli/Small/23.jpg,right,111,right,0.391354930001398,1,Fix2-35,35
sub-12,Block3,Cond,stimuli/Dangerous/50.jpg,left,112,left,0.532294038002874,1,Cond-38,38
sub-12,Block3,Fix2,stimuli/Small/57.jpg,right,113,left,1.32237691000046,0,Fix2-36,36
sub-12,Block3,Fix1,stimuli/Smell/52.jpg,left,114,left,4.69649431499784,1,Fix1-41,41
sub-12,Block3,Cond,stimuli/Dangerous/25.jpg,right,115,right,1.05424252300145,1,Cond-39,39
sub-12,Block3,Fix1,stimuli/Smell/25.jpg,left,116,left,0.615485894999438,1,Fix1-42,42
sub-12,Block3,Fix2,stimuli/Small/7.jpg,right,117,right,0.566307107001194,1,Fix2-37,37
sub-12,Block3,Cond,stimuli/Dangerous/16.jpg,left,118,left,4.47083505499904,1,Cond-40,40
sub-12,Block3,Cond,stimuli/Dangerous/42.jpg,right,119,right,14.2179521669968,1,Cond-41,41
sub-12,Block3,Fix2,stimuli/Small/4.jpg,right,120,right,0.79076775700014,1,Fix2-38,38
sub-12,Block3,Cond,stimuli/Dangerous/28.jpg,left,121,left,0.644852762001392,1,Cond-42,42
sub-12,Block3,Fix1,stimuli/Smell/5.jpg,left,122,left,0.813661799998954,1,Fix1-43,43
sub-12,Block3,Fix1,stimuli/Smell/13.jpg,left,123,left,0.759087331996852,1,Fix1-44,44
sub-12,Block3,Fix2,stimuli/Small/53.jpg,right,124,right,0.743397657999594,1,Fix2-39,39
sub-12,Block3,Fix1,stimuli/Smell/16.jpg,left,125,left,5.1741700800012,1,Fix1-45,45
sub-12,Block3,Fix2,stimuli/Small/29.jpg,right,126,right,0.636228309998842,1,Fix2-40,40
sub-12,Block3,Fix2,stimuli/Small/58.jpg,right,127,right,0.566011531998811,1,Fix2-41,41
sub-12,Block3,Cond,stimuli/Dangerous/13.jpg,left,128,left,0.758021253001061,1,Cond-43,43
sub-12,Block3,Fix2,stimuli/Small/45.jpg,right,129,right,0.876276604998566,1,Fix2-42,42
sub-12,Block3,Fix2,stimuli/Small/26.jpg,right,130,right,0.539219902999321,1,Fix2-43,43
sub-12,Block3,Fix2,stimuli/Small/48.jpg,right,131,right,0.741799146999256,1,Fix2-44,44
sub-12,Block3,Fix1,stimuli/Smell/7.jpg,left,132,left,1.35409898000216,1,Fix1-46,46
sub-12,Block3,Fix2,stimuli/Small/52.jpg,right,133,right,0.821167660000356,1,Fix2-45,45
sub-12,Block3,Fix2,stimuli/Small/28.jpg,right,134,right,0.693138800001179,1,Fix2-46,46
sub-12,Block3,Fix2,stimuli/Small/11.jpg,right,135,right,0.588543977999507,1,Fix2-47,47
sub-12,Block3,Cond,stimuli/Dangerous/57.jpg,left,136,left,0.753919344999304,1,Cond-44,44
sub-12,Block3,Fix2,stimuli/Small/17.jpg,right,137,right,0.570102542998939,1,Fix2-48,48
sub-12,Block3,Fix2,stimuli/Small/12.jpg,right,138,right,1.49762466299944,1,Fix2-49,49
sub-12,Block3,Fix1,stimuli/Smell/58.jpg,left,139,left,0.549870300001203,1,Fix1-47,47
sub-12,Block3,Fix1,stimuli/Smell/41.jpg,left,140,left,0.673928461998003,1,Fix1-48,48
sub-12,Block3,Cond,stimuli/Dangerous/1.jpg,right,141,right,5.87955869199868,1,Cond-45,45
sub-12,Block3,Fix2,stimuli/Small/34.jpg,right,142,right,43.0643916680019,1,Fix2-50,50
sub-12,Block3,Cond,stimuli/Dangerous/17.jpg,left,143,left,0.681324121997022,1,Cond-46,46
sub-12,Block3,Cond,stimuli/Dangerous/9.jpg,right,144,right,1.11472722499821,1,Cond-47,47
sub-12,Block3,Fix1,stimuli/Smell/12.jpg,left,145,left,0.580604577997292,1,Fix1-49,49
sub-12,Block3,Fix1,stimuli/Smell/46.jpg,left,146,left,0.589770152997517,1,Fix1-50,50
sub-12,Block3,Cond,stimuli/Dangerous/43.jpg,right,147,right,2.0455741400001,1,Cond-48,48
sub-12,Block3,Fix2,stimuli/Small/39.jpg,right,148,left,2.19421734000207,0,Fix2-51,51
sub-12,Block3,Cond,stimuli/Dangerous/55.jpg,left,149,left,2.37733149999985,1,Cond-49,49
sub-12,Block3,Fix1,stimuli/Smell/15.jpg,left,150,left,0.773422409998602,1,Fix1-51,51
sub-12,Block3,Fix1,stimuli/Smell/3.jpg,left,151,left,0.80946365699856,1,Fix1-52,52
sub-12,Block3,Fix2,stimuli/Small/21.jpg,right,152,right,0.489722264999727,1,Fix2-52,52
sub-12,Block3,Fix2,stimuli/Small/49.jpg,right,153,right,0.500906317000045,1,Fix2-53,53
sub-12,Block3,Fix1,stimuli/Smell/29.jpg,left,154,left,1.31130237800244,1,Fix1-53,53
sub-12,Block3,Cond,stimuli/Dangerous/30.jpg,right,155,right,1.0622850969994,1,Cond-50,50
sub-12,Block3,Fix1,stimuli/Smell/31.jpg,left,156,left,0.832852317998913,1,Fix1-54,54
sub-12,Block3,Fix2,stimuli/Small/32.jpg,right,157,right,1.96211970199874,1,Fix2-54,54
sub-12,Block3,Cond,stimuli/Dangerous/0.jpg,left,158,left,0.693893750001735,1,Cond-51,51
sub-12,Block3,Cond,stimuli/Dangerous/11.jpg,right,159,right,0.67228406799768,1,Cond-52,52
sub-12,Block3,Fix1,stimuli/Smell/43.jpg,left,160,left,1.0876029050014,1,Fix1-55,55
sub-12,Block3,Fix2,stimuli/Small/38.jpg,right,161,right,0.704080146999331,1,Fix2-55,55
sub-12,Block3,Fix2,stimuli/Small/59.jpg,right,162,right,0.669952457999898,1,Fix2-56,56
sub-12,Block3,Cond,stimuli/Dangerous/58.jpg,left,163,left,0.624987096998666,1,Cond-53,53
sub-12,Block3,Cond,stimuli/Dangerous/56.jpg,right,164,right,0.927368874999956,1,Cond-54,54
sub-12,Block3,Fix2,stimuli/Small/8.jpg,right,165,right,0.801704410001548,1,Fix2-57,57
sub-12,Block3,Fix2,stimuli/Small/3.jpg,right,166,right,0.586504409999179,1,Fix2-58,58
sub-12,Block3,Fix1,stimuli/Smell/49.jpg,left,167,left,0.586871572999371,1,Fix1-56,56
sub-12,Block3,Fix1,stimuli/Smell/19.jpg,left,168,right,2.03526615300143,0,Fix1-57,57
sub-12,Block3,Cond,stimuli/Dangerous/44.jpg,right,169,left,12.2898463829988,0,Cond-55,55
sub-12,Block3,Fix1,stimuli/Smell/39.jpg,left,170,left,2.27588407800067,1,Fix1-58,58
sub-12,Block3,Fix2,stimuli/Small/9.jpg,right,171,right,6.02767548300108,1,Fix2-59,59
sub-12,Block3,Cond,stimuli/Dangerous/2.jpg,left,172,left,2.90423965500304,1,Cond-56,56
sub-12,Block3,Cond,stimuli/Dangerous/7.jpg,right,173,right,1.14016784499836,1,Cond-57,57
sub-12,Block3,Fix2,stimuli/Small/41.jpg,right,174,right,0.673378625000623,1,Fix2-60,60
sub-12,Block3,Fix1,stimuli/Smell/18.jpg,left,175,left,1.83887652499834,1,Fix1-59,59
sub-12,Block3,Cond,stimuli/Dangerous/59.jpg,right,176,right,1.99265188500067,1,Cond-58,58
sub-12,Block3,Cond,stimuli/Dangerous/41.jpg,left,177,left,1.97771058500075,1,Cond-59,59
sub-12,Block3,Cond,stimuli/Dangerous/53.jpg,right,178,right,0.736317706996488,1,Cond-60,60
sub-12,Block3,Fix1,stimuli/Smell/32.jpg,left,179,left,1.81631719500001,1,Fix1-60,60
sub-21,Block1,Fix1,stimuli/Healthy/43.jpg,right,0,left,6.72564705298282,0,Fix1-1,1
sub-21,Block1,Cond,stimuli/Soft/19.jpg,left,1,right,36.6519822009723,0,Cond-1,1
sub-21,Block1,Cond,stimuli/Soft/28.jpg,right,2,left,4.18676200299524,0,Cond-2,2
sub-21,Block1,Cond,stimuli/Soft/11.jpg,left,3,left,3.53407653002068,1,Cond-3,3
sub-21,Block1,Fix2,stimuli/School/13.jpg,left,4,right,3.75886667298619,0,Fix2-1,1
sub-21,Block1,Cond,stimuli/Soft/49.jpg,right,5,right,9.34496371104615,1,Cond-4,4
sub-21,Block1,Cond,stimuli/Soft/14.jpg,left,6,left,3.3175788950175,1,Cond-5,5
sub-21,Block1,Cond,stimuli/Soft/37.jpg,right,7,right,3.06339145795209,1,Cond-6,6
sub-21,Block1,Fix1,stimuli/Healthy/42.jpg,right,8,right,3.15012765000574,1,Fix1-2,2
sub-21,Block1,Fix2,stimuli/School/9.jpg,left,9,left,3.56657532101963,1,Fix2-2,2
sub-21,Block1,Fix2,stimuli/School/56.jpg,left,10,right,2.55142669897759,0,Fix2-3,3
sub-21,Block1,Fix1,stimuli/Healthy/62.jpg,right,11,left,3.37672251201002,0,Fix1-3,3
sub-21,Block1,Fix2,stimuli/School/20.jpg,left,12,right,5.76160685101058,0,Fix2-4,4
sub-21,Block1,Cond,stimuli/Soft/59.jpg,right,13,left,5.22809226001846,0,Cond-7,7
sub-21,Block1,Fix1,stimuli/Healthy/29.jpg,right,14,left,3.35950737498933,0,Fix1-4,4
sub-21,Block1,Fix1,stimuli/Healthy/14.jpg,right,15,right,3.41312149801524,1,Fix1-5,5
sub-21,Block1,Fix2,stimuli/School/51.jpg,left,16,right,5.6193577190279,0,Fix2-5,5
sub-21,Block1,Cond,stimuli/Soft/55.jpg,right,17,left,1.88221714296378,0,Cond-8,8
sub-21,Block1,Cond,stimuli/Soft/18.jpg,left,18,right,1.97158999997191,0,Cond-9,9
sub-21,Block1,Fix2,stimuli/School/36.jpg,left,19,left,5.04373375698924,1,Fix2-6,6
sub-21,Block1,Cond,stimuli/Soft/38.jpg,right,20,left,7.60906930599594,0,Cond-10,10
sub-21,Block1,Fix1,stimuli/Healthy/40.jpg,right,21,right,2.19348948198603,1,Fix1-6,6
sub-21,Block1,Fix1,stimuli/Healthy/69.jpg,right,22,right,2.4367091919994,1,Fix1-7,7
sub-21,Block1,Cond,stimuli/Soft/53.jpg,left,23,right,3.77735638199374,0,Cond-11,11
sub-21,Block1,Fix2,stimuli/School/53.jpg,left,24,right,5.80410923395539,0,Fix2-7,7
sub-21,Block1,Fix1,stimuli/Healthy/45.jpg,right,25,left,4.4080114190001,0,Fix1-8,8
sub-21,Block1,Fix2,stimuli/School/0.jpg,left,26,right,1.88648267800454,0,Fix2-8,8
sub-21,Block1,Cond,stimuli/Soft/21.jpg,right,27,left,2.88756234798348,0,Cond-12,12
sub-21,Block1,Fix2,stimuli/School/37.jpg,left,28,right,2.11662608396728,0,Fix2-9,9
sub-21,Block1,Fix2,stimuli/School/50.jpg,left,29,left,2.86668124998687,1,Fix2-10,10
sub-21,Block1,Fix2,stimuli/School/46.jpg,left,30,right,4.26603076100582,0,Fix2-11,11
sub-21,Block1,Cond,stimuli/Soft/42.jpg,right,31,left,2.54036573000485,0,Cond-13,13
sub-21,Block1,Cond,stimuli/Soft/33.jpg,left,32,left,2.46228580398019,1,Cond-14,14
sub-21,Block1,Cond,stimuli/Soft/47.jpg,right,33,right,3.14777181204408,1,Cond-15,15
sub-21,Block1,Fix2,stimuli/School/5.jpg,left,34,left,3.89213240495883,1,Fix2-12,12
sub-21,Block1,Fix2,stimuli/School/1.jpg,left,35,right,3.32514766900567,0,Fix2-13,13
sub-21,Block1,Cond,stimuli/Soft/9.jpg,right,36,left,7.09870447299909,0,Cond-16,16
sub-21,Block1,Cond,stimuli/Soft/12.jpg,left,37,right,21.674300935003,0,Cond-17,17
sub-21,Block1,Fix1,stimuli/Healthy/22.jpg,right,38,left,2.34685160598019,0,Fix1-9,9
sub-21,Block1,Cond,stimuli/Soft/50.jpg,left,39,left,2.27836009196471,1,Cond-18,18
sub-21,Block1,Fix1,stimuli/Healthy/20.jpg,right,40,right,3.39458723395364,1,Fix1-10,10
sub-21,Block1,Fix2,stimuli/School/32.jpg,left,41,left,2.89667500200449,1,Fix2-14,14
sub-21,Block1,Fix1,stimuli/Healthy/5.jpg,right,42,left,3.86809219099814,0,Fix1-11,11
sub-21,Block1,Fix1,stimuli/Healthy/15.jpg,right,43,left,2.49783875601133,0,Fix1-12,12
sub-21,Block1,Fix1,stimuli/Healthy/61.jpg,right,44,right,2.72250147501472,1,Fix1-13,13
sub-21,Block1,Fix2,stimuli/School/55.jpg,left,45,right,5.06614958296996,0,Fix2-15,15
sub-21,Block1,Cond,stimuli/Soft/52.jpg,right,46,left,2.82478452997748,0,Cond-19,19
sub-21,Block1,Fix2,stimuli/School/15.jpg,left,47,left,2.46671914804028,1,Fix2-16,16
sub-21,Block1,Fix2,stimuli/School/34.jpg,left,48,left,1.93617487297161,1,Fix2-17,17
sub-21,Block1,Fix2,stimuli/School/41.jpg,left,49,left,1.38172814896097,1,Fix2-18,18
sub-21,Block1,Cond,stimuli/Soft/2.jpg,right,50,left,4.18991613801336,0,Cond-20,20
sub-21,Block1,Fix2,stimuli/School/40.jpg,left,51,left,1.80085044400766,1,Fix2-19,19
sub-21,Block1,Fix2,stimuli/School/19.jpg,left,52,right,2.15187762398273,0,Fix2-20,20
sub-21,Block1,Cond,stimuli/Soft/51.jpg,right,53,right,2.46179293596651,1,Cond-21,21
sub-21,Block1,Fix1,stimuli/Healthy/23.jpg,right,54,right,2.55269118200522,1,Fix1-14,14
sub-21,Block1,Fix1,stimuli/Healthy/67.jpg,right,55,right,1.50928809901234,1,Fix1-15,15
sub-21,Block1,Fix1,stimuli/Healthy/38.jpg,right,56,left,2.26524393900763,0,Fix1-16,16
sub-21,Block1,Fix2,stimuli/School/26.jpg,left,57,right,1.98567497101612,0,Fix2-21,21
sub-21,Block1,Fix1,stimuli/Healthy/6.jpg,right,58,right,2.35283399000764,1,Fix1-17,17
sub-21,Block1,Fix1,stimuli/Healthy/0.jpg,right,59,right,1.71936929400545,1,Fix1-18,18
sub-21,Block1,Fix1,stimuli/Healthy/31.jpg,right,60,left,2.50017655198462,0,Fix1-19,19
sub-21,Block1,Cond,stimuli/Soft/29.jpg,left,61,left,2.16728877602145,1,Cond-22,22
sub-21,Block1,Cond,stimuli/Soft/31.jpg,right,62,left,1.50169808004284,0,Cond-23,23
sub-21,Block1,Fix1,stimuli/Healthy/48.jpg,right,63,right,3.08405018300982,1,Fix1-20,20
sub-21,Block1,Cond,stimuli/Soft/26.jpg,left,64,right,2.30977412499487,0,Cond-24,24
sub-21,Block1,Fix1,stimuli/Healthy/53.jpg,right,65,left,1.73187504004454,0,Fix1-21,21
sub-21,Block1,Fix1,stimuli/Healthy/17.jpg,right,66,right,2.18129713798407,1,Fix1-22,22
sub-21,Block1,Cond,stimuli/Soft/45.jpg,left,67,left,2.05928660201607,1,Cond-25,25
sub-21,Block1,Fix2,stimuli/School/28.jpg,left,68,right,2.85925456997938,0,Fix2-22,22
sub-21,Block1,Fix1,stimuli/Healthy/25.jpg,right,69,left,2.04945863998728,0,Fix1-23,23
sub-21,Block1,Fix1,stimuli/Healthy/55.jpg,right,70,left,2.19800531998044,0,Fix1-24,24
sub-21,Block1,Cond,stimuli/Soft/4.jpg,left,71,left,1.72240180795779,1,Cond-26,26
sub-21,Block1,Fix1,stimuli/Healthy/7.jpg,right,72,left,2.3680642239633,0,Fix1-25,25
sub-21,Block1,Fix1,stimuli/Healthy/47.jpg,right,73,right,1.92224556597648,1,Fix1-26,26
sub-21,Block1,Fix2,stimuli/School/38.jpg,left,74,right,2.72757903597085,0,Fix2-23,23
sub-21,Block1,Cond,stimuli/Soft/1.jpg,right,75,left,1.69663895101985,0,Cond-27,27
sub-21,Block1,Fix2,stimuli/School/22.jpg,left,76,left,3.1129586820025,1,Fix2-24,24
sub-21,Block1,Fix2,stimuli/School/49.jpg,left,77,right,2.59276034298819,0,Fix2-25,25
sub-21,Block1,Cond,stimuli/Soft/48.jpg,right,78,left,3.06035558797885,0,Cond-28,28
sub-21,Block1,Cond,stimuli/Soft/56.jpg,left,79,left,4.28760753403185,1,Cond-29,29
sub-21,Block1,Fix1,stimuli/Healthy/28.jpg,right,80,right,3.59249100199668,1,Fix1-27,27
sub-21,Block1,Cond,stimuli/Soft/40.jpg,left,81,left,1.62592061900068,1,Cond-30,30
sub-21,Block1,Fix1,stimuli/Healthy/68.jpg,right,82,right,1.81392568402225,1,Fix1-28,28
sub-21,Block1,Fix2,stimuli/School/30.jpg,left,83,left,2.63299735297915,1,Fix2-26,26
sub-21,Block1,Cond,stimuli/Soft/13.jpg,right,84,left,3.39719659200637,0,Cond-31,31
sub-21,Block1,Fix2,stimuli/School/2.jpg,left,85,left,1.78243940096581,1,Fix2-27,27
sub-21,Block1,Cond,stimuli/Soft/32.jpg,right,86,right,1.56059483898571,1,Cond-32,32
sub-21,Block1,Cond,stimuli/Soft/58.jpg,left,87,left,1.83118433400523,1,Cond-33,33
sub-21,Block1,Fix1,stimuli/Healthy/51.jpg,right,88,right,2.50475743797142,1,Fix1-29,29
sub-21,Block1,Cond,stimuli/Soft/10.jpg,left,89,left,1.53886765398784,1,Cond-34,34
sub-21,Block1,Cond,stimuli/Soft/27.jpg,right,90,left,3.87136622401886,0,Cond-35,35
sub-21,Block1,Cond,stimuli/Soft/30.jpg,left,91,left,1.69523882499197,1,Cond-36,36
sub-21,Block1,Cond,stimuli/Soft/8.jpg,right,92,left,2.42507253203075,0,Cond-37,37
sub-21,Block1,Cond,stimuli/Soft/46.jpg,left,93,right,1.85505365399877,0,Cond-38,38
sub-21,Block1,Fix1,stimuli/Healthy/2.jpg,right,94,left,3.73451470897999,0,Fix1-30,30
sub-21,Block1,Fix1,stimuli/Healthy/30.jpg,right,95,right,1.52457995701116,1,Fix1-31,31
sub-21,Block1,Cond,stimuli/Soft/15.jpg,left,96,left,1.79554932902101,1,Cond-39,39
sub-21,Block1,Fix1,stimuli/Healthy/12.jpg,right,97,right,2.59554415597813,1,Fix1-32,32
sub-21,Block1,Fix1,stimuli/Healthy/26.jpg,right,98,left,1.94765469501726,0,Fix1-33,33
sub-21,Block1,Fix1,stimuli/Healthy/4.jpg,right,99,right,2.08513748302357,1,Fix1-34,34
sub-21,Block1,Fix2,stimuli/School/35.jpg,left,100,left,2.44542999699479,1,Fix2-28,28
sub-21,Block1,Fix1,stimuli/Healthy/60.jpg,right,101,left,1.88117751100799,0,Fix1-35,35
sub-21,Block1,Fix2,stimuli/School/31.jpg,left,102,left,1.30554541700985,1,Fix2-29,29
