Subj,Block,Type,Stim,Corr,Trial,Resp,RT,Succ,TrialType,TrialTypeInt
1,Block1,Fix2,stimuli/Dangerous/15.jpg,right,0,left,3.11363901199729,0,Fix2-1,1
1,Block1,Fix1,stimuli/School/26.jpg,left,1,right,2.2417988849993,0,Fix1-1,1
1,Block1,Cond,stimuli/Small/10.jpg,right,2,right,1.84722031999991,1,Cond-1,1
1,Block1,Fix1,stimuli/School/25.jpg,left,3,right,5.09345394800039,0,Fix1-2,2
1,Block1,Fix2,stimuli/Dangerous/30.jpg,right,4,right,2.81132907500069,1,Fix2-2,2
1,Block1,Fix2,stimuli/Dangerous/42.jpg,right,5,right,1.1402617729982,1,Fix2-3,3
1,Block1,Cond,stimuli/Small/4.jpg,left,6,left,2.33709618499779,1,Cond-2,2
1,Block1,Fix2,stimuli/Dangerous/44.jpg,right,7,right,1.50103030000173,1,Fix2-4,4
1,Block1,Cond,stimuli/Small/39.jpg,left,8,left,1.14914332999979,1,Cond-3,3
1,Block1,Fix2,stimuli/Dangerous/34.jpg,right,9,right,1.35519764499986,1,Fix2-5,5
1,Block1,Cond,stimuli/Small/13.jpg,left,10,left,1.69921136199991,1,Cond-4,4
1,Block1,Fix2,stimuli/Dangerous/6.jpg,right,11,right,2.54954550299954,1,Fix2-6,6
1,Block1,Fix2,stimuli/Dangerous/24.jpg,right,12,right,1.27179533500021,1,Fix2-7,7
1,Block1,Cond,stimuli/Small/20.jpg,left,13,left,0.8814410949999,1,Cond-5,5
1,Block1,Fix2,stimuli/Dangerous/33.jpg,right,14,right,0.738863937000133,1,Fix2-8,8
1,Block1,Cond,stimuli/Small/2.jpg,left,15,left,1.35934831499981,1,Cond-6,6
1,Block1,Fix2,stimuli/Dangerous/41.jpg,right,16,right,0.866184260001319,1,Fix2-9,9
1,Block1,Fix1,stimuli/School/56.jpg,left,17,right,3.77589305499714,0,Fix1-3,3
1,Block1,Cond,stimuli/Small/57.jpg,right,18,left,1.90280519299995,0,Cond-7,7
1,Block1,Fix2,stimuli/Dangerous/58.jpg,right,19,right,3.13213456000085,1,Fix2-10,10
1,Block1,Cond,stimuli/Small/58.jpg,left,20,left,4.19109880500037,1,Cond-8,8
1,Block1,Fix2,stimuli/Dangerous/20.jpg,right,21,right,1.1605652649996,1,Fix2-11,11
1,Block1,Cond,stimuli/Small/29.jpg,left,22,left,1.10217481500149,1,Cond-9,9
1,Block1,Fix2,stimuli/Dangerous/46.jpg,right,23,right,1.00600325499909,1,Fix2-12,12
1,Block1,Fix1,stimuli/School/10.jpg,left,24,left,1.80645468999865,1,Fix1-4,4
1,Block1,Fix1,stimuli/School/50.jpg,left,25,right,8.69810929300002,0,Fix1-5,5
1,Block1,Cond,stimuli/Small/19.jpg,right,26,left,4.84350963500037,0,Cond-10,10
1,Block1,Fix1,stimuli/School/28.jpg,left,27,left,6.60635390500101,1,Fix1-6,6
1,Block1,Fix1,stimuli/School/35.jpg,left,28,left,1.34852803500326,1,Fix1-7,7
1,Block1,Fix1,stimuli/School/39.jpg,left,29,left,0.628853269998217,1,Fix1-8,8
1,Block1,Cond,stimuli/Small/42.jpg,right,30,left,1.88585662000332,0,Cond-11,11
1,Block1,Fix2,stimuli/Dangerous/31.jpg,right,31,right,6.18505238999933,1,Fix2-13,13
1,Block1,Cond,stimuli/Small/25.jpg,left,32,left,1.38810679299786,1,Cond-12,12
1,Block1,Cond,stimuli/Small/9.jpg,right,33,right,2.13150477999807,1,Cond-13,13
1,Block1,Fix1,stimuli/School/9.jpg,left,34,left,1.82357709500138,1,Fix1-9,9
1,Block1,Fix1,stimuli/School/23.jpg,left,35,left,59.8532001599997,1,Fix1-10,10
1,Block1,Fix1,stimuli/School/54.jpg,left,36,left,1.05416234600125,1,Fix1-11,11
1,Block1,Cond,stimuli/Small/43.jpg,right,37,right,1.76987763799843,1,Cond-14,14
1,Block1,Fix2,stimuli/Dangerous/22.jpg,right,38,right,2.21079793200261,1,Fix2-14,14
1,Block1,Fix2,stimuli/Dangerous/43.jpg,right,39,right,0.774827781999193,1,Fix2-15,15
1,Block1,Cond,stimuli/Small/36.jpg,left,40,left,1.55337586500173,1,Cond-15,15
1,Block1,Fix2,stimuli/Dangerous/38.jpg,right,41,right,1.11686903000009,1,Fix2-16,16
1,Block1,Fix1,stimuli/School/18.jpg,left,42,left,0.921264622997114,1,Fix1-12,12
1,Block1,Fix1,stimuli/School/36.jpg,left,43,left,0.729549169998791,1,Fix1-13,13
1,Block1,Fix1,stimuli/School/48.jpg,left,44,left,1.59951594800077,1,Fix1-14,14
1,Block1,Fix1,stimuli/School/42.jpg,left,45,left,1.9277034480001,1,Fix1-15,15
1,Block1,Cond,stimuli/Small/23.jpg,right,46,right,1.29378442500092,1,Cond-16,16
1,Block1,Cond,stimuli/Small/38.jpg,left,47,left,0.906480860001466,1,Cond-17,17
1,Block1,Cond,stimuli/Small/55.jpg,right,48,right,1.37988780700107,1,Cond-18,18
1,Block1,Cond,stimuli/Small/1.jpg,left,49,left,1.15103765299864,1,Cond-19,19
1,Block1,Fix1,stimuli/School/6.jpg,left,50,left,2.76881710000089,1,Fix1-16,16
1,Block1,Fix2,stimuli/Dangerous/18.jpg,right,51,right,0.763813868001307,1,Fix2-17,17
1,Block1,Fix1,stimuli/School/1.jpg,left,52,left,1.39775077800005,1,Fix1-17,17
1,Block1,Cond,stimuli/Small/33.jpg,right,53,right,0.936209384999529,1,Cond-20,20
1,Block1,Cond,stimuli/Small/12.jpg,left,54,left,1.17732966800031,1,Cond-21,21
1,Block1,Cond,stimuli/Small/17.jpg,right,55,right,0.677323593001347,1,Cond-22,22
1,Block1,Fix1,stimuli/School/17.jpg,left,56,left,1.22938830000203,1,Fix1-18,18
1,Block1,Cond,stimuli/Small/11.jpg,right,57,right,0.826833450002596,1,Cond-23,23
1,Block1,Fix1,stimuli/School/33.jpg,left,58,left,1.02349821999815,1,Fix1-19,19
1,Block1,Cond,stimuli/Small/18.jpg,right,59,right,1.22383175499999,1,Cond-24,24
1,Block1,Fix2,stimuli/Dangerous/61.jpg,right,60,right,0.916179677002219,1,Fix2-18,18
1,Block1,Fix2,stimuli/Dangerous/32.jpg,right,61,right,0.696480675000203,1,Fix2-19,19
1,Block1,Fix2,stimuli/Dangerous/28.jpg,right,62,right,0.684877162999328,1,Fix2-20,20
1,Block1,Cond,stimuli/Small/16.jpg,left,63,left,0.86833522699817,1,Cond-25,25
1,Block1,Cond,stimuli/Small/14.jpg,right,64,left,1.64547479999965,0,Cond-26,26
1,Block1,Fix2,stimuli/Dangerous/35.jpg,right,65,right,1.39241333199971,1,Fix2-21,21
1,Block1,Fix2,stimuli/Dangerous/3.jpg,right,66,right,0.973499465002533,1,Fix2-22,22
1,Block1,Cond,stimuli/Small/45.jpg,left,67,left,0.975497534996975,1,Cond-27,27
1,Block1,Fix2,stimuli/Dangerous/10.jpg,right,68,right,1.6062528600014,1,Fix2-23,23
1,Block1,Fix2,stimuli/Dangerous/9.jpg,right,69,right,1.53675647999989,1,Fix2-24,24
1,Block1,Cond,stimuli/Small/31.jpg,left,70,left,1.43558914999812,1,Cond-28,28
1,Block1,Fix1,stimuli/School/19.jpg,left,71,left,1.02999321199968,1,Fix1-20,20
1,Block1,Fix1,stimuli/School/11.jpg,left,72,left,1.00415769499887,1,Fix1-21,21
1,Block1,Fix1,stimuli/School/31.jpg,left,73,left,0.769901489999029,1,Fix1-22,22
1,Block1,Fix1,stimuli/School/21.jpg,left,74,left,3.1149890380002,1,Fix1-23,23
1,Block1,Fix1,stimuli/School/55.jpg,left,75,left,1.31697907999842,1,Fix1-24,24
1,Block1,Cond,stimuli/Small/32.jpg,right,76,right,3.49414124000032,1,Cond-29,29
1,Block1,Fix2,stimuli/Dangerous/48.jpg,right,77,right,0.875288930001261,1,Fix2-25,25
1,Block1,Cond,stimuli/Small/5.jpg,left,78,left,1.19523968499925,1,Cond-30,30
1,Block1,Fix1,stimuli/School/37.jpg,left,79,left,1.42883151699789,1,Fix1-25,25
1,Block1,Fix1,stimuli/School/27.jpg,left,80,left,2.11612802200034,1,Fix1-26,26
1,Block1,Cond,stimuli/Small/28.jpg,right,81,right,0.942623962000653,1,Cond-31,31
1,Block1,Cond,stimuli/Small/30.jpg,left,82,left,1.99388927700056,1,Cond-32,32
1,Block1,Fix1,stimuli/School/59.jpg,left,83,left,0.987335764999443,1,Fix1-27,27
1,Block1,Fix2,stimuli/Dangerous/7.jpg,right,84,right,2.44877199199982,1,Fix2-26,26
1,Block1,Cond,stimuli/Small/37.jpg,left,85,left,0.658825189999334,1,Cond-33,33
1,Block1,Fix1,stimuli/School/13.jpg,left,86,left,0.682574599999498,1,Fix1-28,28
1,Block1,Fix2,stimuli/Dangerous/14.jpg,right,87,right,1.29377966000175,1,Fix2-27,27
1,Block1,Cond,stimuli/Small/50.jpg,left,88,left,0.547240462001355,1,Cond-34,34
1,Block1,Fix2,stimuli/Dangerous/63.jpg,right,89,right,0.619830005001859,1,Fix2-28,28
1,Block1,Fix2,stimuli/Dangerous/0.jpg,right,90,right,0.607447897000384,1,Fix2-29,29
1,Block1,Fix1,stimuli/School/32.jpg,left,91,left,0.805524486997456,1,Fix1-29,29
1,Block1,Fix1,stimuli/School/29.jpg,left,92,left,0.857244222999725,1,Fix1-30,30
1,Block1,Cond,stimuli/Small/7.jpg,right,93,right,1.06643169699964,1,Cond-35,35
1,Block1,Fix2,stimuli/Dangerous/19.jpg,right,94,right,0.955852032999246,1,Fix2-30,30
1,Block1,Cond,stimuli/Small/51.jpg,left,95,left,0.950510039998335,1,Cond-36,36
1,Block1,Fix2,stimuli/Dangerous/4.jpg,right,96,right,1.50381825300065,1,Fix2-31,31
1,Block1,Cond,stimuli/Small/24.jpg,left,97,left,1.2022555600015,1,Cond-37,37
1,Block1,Fix1,stimuli/School/58.jpg,left,98,left,1.30795700800081,1,Fix1-31,31
1,Block1,Cond,stimuli/Small/35.jpg,right,99,left,0.89177967499927,0,Cond-38,38
1,Block1,Cond,stimuli/Small/40.jpg,left,100,right,3.37364384199827,0,Cond-39,39
1,Block1,Cond,stimuli/Small/3.jpg,right,101,right,4.52479965499879,1,Cond-40,40
1,Block1,Fix1,stimuli/School/38.jpg,left,102,left,0.924455031999969,1,Fix1-32,32
1,Block1,Fix2,stimuli/Dangerous/26.jpg,right,103,right,0.976775112001633,1,Fix2-32,32
1,Block1,Fix1,stimuli/School/51.jpg,left,104,left,0.967086905002361,1,Fix1-33,33
1,Block1,Cond,stimuli/Small/56.jpg,right,105,right,1.52084870999897,1,Cond-41,41
1,Block1,Cond,stimuli/Small/44.jpg,left,106,left,1.03382530999806,1,Cond-42,42
1,Block1,Fix2,stimuli/Dangerous/36.jpg,right,107,right,0.622503520000464,1,Fix2-33,33
1,Block1,Cond,stimuli/Small/54.jpg,left,108,left,0.656709794999188,1,Cond-43,43
1,Block1,Fix1,stimuli/School/0.jpg,left,109,left,1.89956226700087,1,Fix1-34,34
1,Block1,Fix1,stimuli/School/57.jpg,left,110,left,1.77361292700152,1,Fix1-35,35
1,Block1,Fix1,stimuli/School/24.jpg,left,111,left,1.01264477500081,1,Fix1-36,36
1,Block1,Fix2,stimuli/Dangerous/45.jpg,right,112,right,0.728673549998348,1,Fix2-34,34
1,Block1,Fix2,stimuli/Dangerous/40.jpg,right,113,right,1.28267243499795,1,Fix2-35,35
1,Block1,Fix2,stimuli/Dangerous/39.jpg,right,114,right,0.822725522000837,1,Fix2-36,36
1,Block1,Cond,stimuli/Small/59.jpg,left,115,left,0.960113795001234,1,Cond-44,44
1,Block1,Fix2,stimuli/Dangerous/21.jpg,right,116,right,0.502687230000447,1,Fix2-37,37
1,Block1,Fix1,stimuli/School/15.jpg,left,117,left,2.90335127300204,1,Fix1-37,37
1,Block1,Fix1,stimuli/School/5.jpg,left,118,left,13.301137272003,1,Fix1-38,38
1,Block1,Fix1,stimuli/School/46.jpg,left,119,left,2.71478770999965,1,Fix1-39,39
1,Block1,Fix1,stimuli/School/4.jpg,left,120,left,1.67601289000231,1,Fix1-40,40
1,Block1,Fix2,stimuli/Dangerous/8.jpg,right,121,right,1.04852782699891,1,Fix2-38,38
1,Block1,Fix2,stimuli/Dangerous/17.jpg,right,122,right,0.6199115849995,1,Fix2-39,39
1,Block1,Fix2,stimuli/Dangerous/1.jpg,right,123,right,0.80398328299998,1,Fix2-40,40
1,Block1,Fix1,stimuli/School/3.jpg,left,124,left,1.01463671700185,1,Fix1-41,41
1,Block1,Fix2,stimuli/Dangerous/37.jpg,right,125,right,0.767158620001283,1,Fix2-41,41
1,Block1,Fix1,stimuli/School/22.jpg,left,126,left,0.639165391999995,1,Fix1-42,42
1,Block1,Fix2,stimuli/Dangerous/51.jpg,right,127,right,1.21264772500217,1,Fix2-42,42
1,Block1,Cond,stimuli/Small/6.jpg,left,128,left,1.42957315500098,1,Cond-45,45
1,Block1,Fix1,stimuli/School/12.jpg,left,129,left,0.779808749997756,1,Fix1-43,43
1,Block1,Fix2,stimuli/Dangerous/13.jpg,right,130,right,1.42392056999961,1,Fix2-43,43
1,Block1,Fix1,stimuli/School/49.jpg,left,131,left,0.806918722999399,1,Fix1-44,44
1,Block1,Fix2,stimuli/Dangerous/2.jpg,right,132,right,0.6947465129997,1,Fix2-44,44
1,Block1,Cond,stimuli/Small/52.jpg,left,133,left,0.839311489999091,1,Cond-46,46
1,Block1,Cond,stimuli/Small/27.jpg,right,134,right,1.2377137600015,1,Cond-47,47
1,Block1,Fix1,stimuli/School/41.jpg,left,135,left,0.800874479999038,1,Fix1-45,45
1,Block1,Fix1,stimuli/School/40.jpg,left,136,left,0.779644770002051,1,Fix1-46,46
1,Block1,Fix2,stimuli/Dangerous/57.jpg,right,137,right,1.57875702200181,1,Fix2-45,45
1,Block1,Cond,stimuli/Small/21.jpg,left,138,left,1.09782595700017,1,Cond-48,48
1,Block1,Cond,stimuli/Small/48.jpg,right,139,right,0.650290358000348,1,Cond-49,49
1,Block1,Fix2,stimuli/Dangerous/12.jpg,right,140,right,4.51796883499992,1,Fix2-46,46
1,Block1,Fix1,stimuli/School/2.jpg,left,141,left,0.675462047998735,1,Fix1-47,47
1,Block1,Fix1,stimuli/School/16.jpg,left,142,left,0.785804269999062,1,Fix1-48,48
1,Block1,Fix2,stimuli/Dangerous/23.jpg,right,143,right,0.726115042998572,1,Fix2-47,47
1,Block1,Fix2,stimuli/Dangerous/5.jpg,right,144,right,0.731438664999587,1,Fix2-48,48
1,Block1,Fix2,stimuli/Dangerous/56.jpg,right,145,right,0.751421109998773,1,Fix2-49,49
1,Block1,Cond,stimuli/Small/22.jpg,left,146,left,0.787583159999485,1,Cond-50,50
1,Block1,Fix1,stimuli/School/7.jpg,left,147,left,0.893756842000585,1,Fix1-49,49
1,Block1,Fix1,stimuli/School/43.jpg,left,148,left,1.0685008449982,1,Fix1-50,50
1,Block1,Fix2,stimuli/Dangerous/27.jpg,right,149,right,1.33141490199705,1,Fix2-50,50
1,Block2,Fix2,stimuli/Healthy/38.jpg,left,0,right,4.34890756499954,0,Fix2-1,1
1,Block2,Fix1,stimuli/Old/36.jpg,right,1,right,3.30607111000063,1,Fix1-1,1
1,Block2,Cond,stimuli/Wealth/56.jpg,left,2,left,10.5350110779982,1,Cond-1,1
1,Block2,Fix1,stimuli/Old/58.jpg,right,3,right,10.7090521620012,1,Fix1-2,2
1,Block2,Fix2,stimuli/Healthy/67.jpg,left,4,left,3.34410186699824,1,Fix2-2,2
1,Block2,Fix1,stimuli/Old/40.jpg,right,5,right,8.69945671000096,1,Fix1-3,3
1,Block2,Fix1,stimuli/Old/55.jpg,right,6,right,0.904393569999229,1,Fix1-4,4
1,Block2,Fix2,stimuli/Healthy/37.jpg,left,7,left,1.69036931200026,1,Fix2-3,3
1,Block2,Fix2,stimuli/Healthy/13.jpg,left,8,left,0.731283377001091,1,Fix2-4,4
1,Block2,Fix2,stimuli/Healthy/10.jpg,left,9,left,1.04969230499773,1,Fix2-5,5
1,Block2,Cond,stimuli/Wealth/5.jpg,right,10,right,1.65769480000017,1,Cond-2,2
1,Block2,Fix2,stimuli/Healthy/1.jpg,left,11,left,53.2643618080001,1,Fix2-6,6
1,Block2,Fix1,stimuli/Old/20.jpg,right,12,right,2.36157670499961,1,Fix1-5,5
1,Block2,Fix2,stimuli/Healthy/4.jpg,left,13,left,1.23285077299806,1,Fix2-7,7
1,Block2,Cond,stimuli/Wealth/41.jpg,right,14,right,2.84360846299751,1,Cond-3,3
1,Block2,Cond,stimuli/Wealth/57.jpg,left,15,left,1.18028648000109,1,Cond-4,4
1,Block2,Fix2,stimuli/Healthy/58.jpg,left,16,right,1.17200039200179,0,Fix2-8,8
1,Block2,Fix1,stimuli/Old/49.jpg,right,17,right,2.97694477999903,1,Fix1-6,6
1,Block2,Fix1,stimuli/Old/29.jpg,right,18,right,3.28913423999984,1,Fix1-7,7
1,Block2,Cond,stimuli/Wealth/26.jpg,left,19,left,1.80331955200018,1,Cond-5,5
1,Block2,Fix1,stimuli/Old/37.jpg,right,20,right,0.653248078000615,1,Fix1-8,8
1,Block2,Fix2,stimuli/Healthy/42.jpg,left,21,left,1.00587947800159,1,Fix2-9,9
1,Block2,Fix2,stimuli/Healthy/55.jpg,left,22,left,0.805859247000626,1,Fix2-10,10
1,Block2,Fix1,stimuli/Old/15.jpg,right,23,right,1.3195945970001,1,Fix1-9,9
1,Block2,Fix2,stimuli/Healthy/8.jpg,left,24,left,0.791553580002073,1,Fix2-11,11
1,Block2,Cond,stimuli/Wealth/17.jpg,right,25,right,2.24282904199936,1,Cond-6,6
1,Block2,Cond,stimuli/Wealth/27.jpg,left,26,left,0.877498645000742,1,Cond-7,7
1,Block2,Cond,stimuli/Wealth/0.jpg,right,27,right,0.703763903002255,1,Cond-8,8
1,Block2,Fix2,stimuli/Healthy/5.jpg,left,28,left,0.767125449998275,1,Fix2-12,12
1,Block2,Fix2,stimuli/Healthy/29.jpg,left,29,left,0.574190715000441,1,Fix2-13,13
1,Block2,Cond,stimuli/Wealth/53.jpg,right,30,right,0.847836227003427,1,Cond-9,9
1,Block2,Fix1,stimuli/Old/2.jpg,right,31,right,1.12793358800263,1,Fix1-10,10
1,Block2,Fix2,stimuli/Healthy/7.jpg,left,32,left,0.919989214999077,1,Fix2-14,14
1,Block2,Fix1,stimuli/Old/7.jpg,right,33,right,0.870147625002573,1,Fix1-11,11
1,Block2,Cond,stimuli/Wealth/10.jpg,left,34,left,1.00097834500048,1,Cond-10,10
1,Block2,Fix2,stimuli/Healthy/68.jpg,left,35,left,0.60177953299717,1,Fix2-15,15
1,Block2,Cond,stimuli/Wealth/24.jpg,right,36,left,1.65059484700032,0,Cond-11,11
1,Block2,Cond,stimuli/Wealth/12.jpg,left,37,right,1.04549012500138,0,Cond-12,12
1,Block2,Fix2,stimuli/Healthy/20.jpg,left,38,left,1.61375177200171,1,Fix2-16,16
1,Block2,Fix2,stimuli/Healthy/44.jpg,left,39,left,64.4267605979985,1,Fix2-17,17
1,Block2,Fix2,stimuli/Healthy/27.jpg,left,40,left,1.3422882249979,1,Fix2-18,18
1,Block2,Fix2,stimuli/Healthy/59.jpg,left,41,left,1.29902258199945,1,Fix2-19,19
1,Block2,Fix1,stimuli/Old/46.jpg,right,42,right,1.40440767000109,1,Fix1-12,12
1,Block2,Fix2,stimuli/Healthy/39.jpg,left,43,left,0.72421663699788,1,Fix2-20,20
1,Block2,Fix1,stimuli/Old/38.jpg,right,44,right,1.40418663799937,1,Fix1-13,13
1,Block2,Fix2,stimuli/Healthy/66.jpg,left,45,left,0.998042524999619,1,Fix2-21,21
1,Block2,Fix1,stimuli/Old/17.jpg,right,46,right,1.09729553999932,1,Fix1-14,14
1,Block2,Fix1,stimuli/Old/14.jpg,right,47,right,0.996157615001721,1,Fix1-15,15
1,Block2,Cond,stimuli/Wealth/43.jpg,left,48,left,1.26667237500078,1,Cond-13,13
1,Block2,Fix2,stimuli/Healthy/41.jpg,left,49,left,1.89907680500255,1,Fix2-22,22
1,Block2,Cond,stimuli/Wealth/40.jpg,right,50,right,0.84929806999935,1,Cond-14,14
1,Block2,Fix1,stimuli/Old/43.jpg,right,51,right,0.969842840000638,1,Fix1-16,16
1,Block2,Cond,stimuli/Wealth/44.jpg,left,52,left,1.65594872200018,1,Cond-15,15
1,Block2,Fix1,stimuli/Old/10.jpg,right,53,right,0.870567704998393,1,Fix1-17,17
1,Block2,Fix1,stimuli/Old/3.jpg,right,54,right,1.5138369669985,1,Fix1-18,18
1,Block2,Cond,stimuli/Wealth/13.jpg,left,55,left,4.57598130200131,1,Cond-16,16
1,Block2,Cond,stimuli/Wealth/14.jpg,right,56,right,0.643137478000426,1,Cond-17,17
1,Block2,Fix2,stimuli/Healthy/65.jpg,left,57,left,2.99816855999961,1,Fix2-23,23
1,Block2,Cond,stimuli/Wealth/45.jpg,right,58,right,0.940577689998463,1,Cond-18,18
1,Block2,Cond,stimuli/Wealth/31.jpg,left,59,left,0.872735853001359,1,Cond-19,19
1,Block2,Cond,stimuli/Wealth/46.jpg,right,60,right,1.57000988200161,1,Cond-20,20
1,Block2,Cond,stimuli/Wealth/52.jpg,left,61,left,0.749094411999977,1,Cond-21,21
1,Block2,Fix2,stimuli/Healthy/51.jpg,left,62,left,0.772067674999562,1,Fix2-24,24
1,Block2,Fix2,stimuli/Healthy/32.jpg,left,63,left,0.918493512999703,1,Fix2-25,25
1,Block2,Fix2,stimuli/Healthy/45.jpg,left,64,left,0.546691455001564,1,Fix2-26,26
1,Block2,Cond,stimuli/Wealth/19.jpg,right,65,right,0.739198690000194,1,Cond-22,22
1,Block2,Fix1,stimuli/Old/8.jpg,right,66,right,1.16557551500227,1,Fix1-19,19
1,Block2,Cond,stimuli/Wealth/22.jpg,left,67,left,4.19514962500034,1,Cond-23,23
1,Block2,Cond,stimuli/Wealth/11.jpg,right,68,right,0.792059594998136,1,Cond-24,24
1,Block2,Fix2,stimuli/Healthy/43.jpg,left,69,left,0.587256255999819,1,Fix2-27,27
1,Block2,Fix2,stimuli/Healthy/6.jpg,left,70,left,0.586031423001259,1,Fix2-28,28
1,Block2,Fix1,stimuli/Old/21.jpg,right,71,right,1.24342339900249,1,Fix1-20,20
1,Block2,Fix2,stimuli/Healthy/9.jpg,left,72,left,26.7141736470003,1,Fix2-29,29
1,Block2,Cond,stimuli/Wealth/51.jpg,right,73,right,0.795602883001266,1,Cond-25,25
1,Block2,Fix1,stimuli/Old/54.jpg,right,74,right,0.69978044799791,1,Fix1-21,21
1,Block2,Fix2,stimuli/Healthy/53.jpg,left,75,left,1.59986198800107,1,Fix2-30,30
1,Block2,Cond,stimuli/Wealth/49.jpg,right,76,right,1.1016037249974,1,Cond-26,26
1,Block2,Fix1,stimuli/Old/0.jpg,right,77,right,0.956248287999188,1,Fix1-22,22
1,Block2,Cond,stimuli/Wealth/28.jpg,left,78,left,0.872200050001993,1,Cond-27,27
1,Block2,Cond,stimuli/Wealth/20.jpg,right,79,left,0.607903603002342,0,Cond-28,28
1,Block2,Fix1,stimuli/Old/47.jpg,right,80,right,0.698228172997915,1,Fix1-23,23
1,Block2,Cond,stimuli/Wealth/55.jpg,left,81,left,1.01595544000156,1,Cond-29,29
1,Block2,Cond,stimuli/Wealth/37.jpg,right,82,right,1.68717025300066,1,Cond-30,30
1,Block2,Fix2,stimuli/Healthy/3.jpg,left,83,left,0.865376085002936,1,Fix2-31,31
1,Block2,Fix1,stimuli/Old/16.jpg,right,84,right,0.92455013700237,1,Fix1-24,24
1,Block2,Fix2,stimuli/Healthy/33.jpg,left,85,left,0.650182354998833,1,Fix2-32,32
1,Block2,Fix1,stimuli/Old/48.jpg,right,86,right,0.610211335002532,1,Fix1-25,25
1,Block2,Fix1,stimuli/Old/39.jpg,right,87,right,0.994838386999618,1,Fix1-26,26
1,Block2,Fix1,stimuli/Old/18.jpg,right,88,right,0.71424264000234,1,Fix1-27,27
1,Block2,Fix1,stimuli/Old/13.jpg,right,89,right,0.593668946999969,1,Fix1-28,28
1,Block2,Fix2,stimuli/Healthy/57.jpg,left,90,left,0.599808296999981,1,Fix2-33,33
1,Block2,Fix2,stimuli/Healthy/19.jpg,left,91,left,0.524095310000121,1,Fix2-34,34
1,Block2,Fix2,stimuli/Healthy/21.jpg,left,92,left,0.600292474999151,1,Fix2-35,35
1,Block2,Fix2,stimuli/Healthy/0.jpg,left,93,left,1.14854829199976,1,Fix2-36,36
1,Block2,Fix1,stimuli/Old/35.jpg,right,94,right,1.01327919200048,1,Fix1-29,29
1,Block2,Fix2,stimuli/Healthy/56.jpg,left,95,left,1.89116880499932,1,Fix2-37,37
1,Block2,Cond,stimuli/Wealth/35.jpg,right,96,right,1.09887957499814,1,Cond-31,31
1,Block2,Fix1,stimuli/Old/23.jpg,right,97,right,0.895035344998178,1,Fix1-30,30
1,Block2,Cond,stimuli/Wealth/42.jpg,left,98,left,1.09346658199865,1,Cond-32,32
1,Block2,Fix2,stimuli/Healthy/24.jpg,left,99,left,1.08502924500135,1,Fix2-38,38
1,Block2,Cond,stimuli/Wealth/54.jpg,right,100,right,1.38719928999853,1,Cond-33,33
1,Block2,Cond,stimuli/Wealth/4.jpg,left,101,left,3.00346901699959,1,Cond-34,34
1,Block2,Fix2,stimuli/Healthy/48.jpg,left,102,left,1.36759548999908,1,Fix2-39,39
1,Block2,Fix2,stimuli/Healthy/15.jpg,left,103,left,0.855654651997611,1,Fix2-40,40
1,Block2,Cond,stimuli/Wealth/38.jpg,right,104,right,1.61415650500203,1,Cond-35,35
1,Block2,Cond,stimuli/Wealth/21.jpg,left,105,left,1.08025704999818,1,Cond-36,36
1,Block2,Fix2,stimuli/Healthy/36.jpg,left,106,left,4.46243837500151,1,Fix2-41,41
1,Block2,Fix1,stimuli/Old/12.jpg,right,107,right,3.50734965000083,1,Fix1-31,31
1,Block2,Fix2,stimuli/Healthy/69.jpg,left,108,left,0.968877950002934,1,Fix2-42,42
1,Block2,Fix2,stimuli/Healthy/30.jpg,left,109,left,0.564941630000249,1,Fix2-43,43
1,Block2,Cond,stimuli/Wealth/23.jpg,right,110,left,1.56604959000106,0,Cond-37,37
1,Block2,Fix1,stimuli/Old/9.jpg,right,111,right,2.37849922500027,1,Fix1-32,32
1,Block2,Fix1,stimuli/Old/50.jpg,right,112,right,1.00287907999882,1,Fix1-33,33
1,Block2,Fix1,stimuli/Old/5.jpg,right,113,right,1.084388381998,1,Fix1-34,34
1,Block2,Fix1,stimuli/Old/57.jpg,right,114,right,1.75265143699653,1,Fix1-35,35
1,Block2,Cond,stimuli/Wealth/15.jpg,left,115,right,27.9573245600004,0,Cond-38,38
1,Block2,Fix1,stimuli/Old/26.jpg,right,116,right,1.02463316700232,1,Fix1-36,36
1,Block2,Cond,stimuli/Wealth/47.jpg,left,117,left,1.0225050049994,1,Cond-39,39
1,Block2,Cond,stimuli/Wealth/30.jpg,right,118,right,0.091000479998911,1,Cond-40,40
1,Block2,Cond,stimuli/Wealth/36.jpg,left,119,left,1.10222925199923,1,Cond-41,41
1,Block2,Fix1,stimuli/Old/11.jpg,right,120,right,0.94802568799787,1,Fix1-37,37
1,Block2,Cond,stimuli/Wealth/34.jpg,left,121,left,0.826243715000601,1,Cond-42,42
1,Block2,Fix2,stimuli/Healthy/46.jpg,left,122,left,0.913668815002893,1,Fix2-44,44
1,Block2,Fix1,stimuli/Old/32.jpg,right,123,right,0.746291724997718,1,Fix1-38,38
1,Block2,Cond,stimuli/Wealth/48.jpg,left,124,left,0.654823837998265,1,Cond-43,43
1,Block2,Fix1,stimuli/Old/27.jpg,right,125,right,0.86140407700077,1,Fix1-39,39
1,Block2,Cond,stimuli/Wealth/29.jpg,left,126,left,1.05639496799995,1,Cond-44,44
1,Block2,Fix1,stimuli/Old/42.jpg,right,127,right,0.906049329998496,1,Fix1-40,40
1,Block2,Fix1,stimuli/Old/4.jpg,right,128,right,0.786308553000708,1,Fix1-41,41
1,Block2,Fix2,stimuli/Healthy/31.jpg,left,129,left,2.03036571700068,1,Fix2-45,45
1,Block2,Cond,stimuli/Wealth/18.jpg,right,130,right,0.770318465001765,1,Cond-45,45
1,Block2,Fix2,stimuli/Healthy/52.jpg,left,131,left,1.18323219700324,1,Fix2-46,46
1,Block2,Fix1,stimuli/Old/52.jpg,right,132,right,0.717642579998937,1,Fix1-42,42
1,Block2,Cond,stimuli/Wealth/39.jpg,left,133,left,0.684909479998169,1,Cond-46,46
1,Block2,Fix1,stimuli/Old/34.jpg,right,134,right,0.815272978001303,1,Fix1-43,43
1,Block2,Fix1,stimuli/Old/22.jpg,right,135,right,1.22617603000253,1,Fix1-44,44
1,Block2,Fix1,stimuli/Old/24.jpg,right,136,right,1.07665968499714,1,Fix1-45,45
1,Block2,Cond,stimuli/Wealth/16.jpg,left,137,left,0.87427987999763,1,Cond-47,47
1,Block2,Fix1,stimuli/Old/25.jpg,right,138,right,0.645366420001665,1,Fix1-46,46
1,Block2,Fix1,stimuli/Old/31.jpg,right,139,right,0.643206900000223,1,Fix1-47,47
1,Block2,Fix2,stimuli/Healthy/17.jpg,left,140,left,0.811504026998591,1,Fix2-47,47
1,Block2,Fix1,stimuli/Old/41.jpg,right,141,right,0.760580404999928,1,Fix1-48,48
1,Block2,Cond,stimuli/Wealth/50.jpg,left,142,left,0.778991010000027,1,Cond-48,48
1,Block2,Fix1,stimuli/Old/19.jpg,right,143,right,2.02997112999947,1,Fix1-49,49
1,Block2,Cond,stimuli/Wealth/32.jpg,left,144,left,1.37004321199856,1,Cond-49,49
1,Block2,Fix2,stimuli/Healthy/26.jpg,left,145,left,1.67818677300238,1,Fix2-48,48
1,Block2,Cond,stimuli/Wealth/25.jpg,right,146,right,1.56307115899835,1,Cond-50,50
1,Block2,Fix1,stimuli/Old/44.jpg,right,147,right,0.868730861999211,1,Fix1-50,50
1,Block2,Fix2,stimuli/Healthy/34.jpg,left,148,left,0.776357631999417,1,Fix2-49,49
1,Block2,Fix2,stimuli/Healthy/28.jpg,left,149,left,1.01916875499955,1,Fix2-50,50
1,Block3,Fix1,stimuli/Sad/18.jpg,right,0,left,15.4791729280005,0,Fix1-1,1
1,Block3,Cond,stimuli/Smell/4.jpg,left,1,left,2.52556301499862,1,Cond-1,1
1,Block3,Fix1,stimuli/Sad/9.jpg,right,2,right,8.1510267779995,1,Fix1-2,2
1,Block3,Cond,stimuli/Smell/48.jpg,left,3,left,6.63460112999746,1,Cond-2,2
1,Block3,Fix1,stimuli/Sad/26.jpg,right,4,right,1.81732710299912,1,Fix1-3,3
1,Block3,Fix2,stimuli/Soft/49.jpg,left,5,left,17.9736432829995,1,Fix2-1,1
1,Block3,Fix2,stimuli/Soft/23.jpg,left,6,right,2.73523459200078,0,Fix2-2,2
1,Block3,Cond,stimuli/Smell/34.jpg,right,7,right,7.56586116199833,1,Cond-3,3
1,Block3,Cond,stimuli/Smell/9.jpg,left,8,left,6.87202858700039,1,Cond-4,4
1,Block3,Fix2,stimuli/Soft/14.jpg,left,9,left,18.8077262859988,1,Fix2-3,3
1,Block3,Fix2,stimuli/Soft/34.jpg,left,10,left,0.740044784997735,1,Fix2-4,4
1,Block3,Fix1,stimuli/Sad/34.jpg,right,11,right,9.97621176300163,1,Fix1-4,4
1,Block3,Fix1,stimuli/Sad/47.jpg,right,12,right,0.725689727998542,1,Fix1-5,5
1,Block3,Fix2,stimuli/Soft/50.jpg,left,13,left,2.61751488500158,1,Fix2-5,5
1,Block3,Fix1,stimuli/Sad/46.jpg,right,14,right,1.003629482002,1,Fix1-6,6
1,Block3,Fix2,stimuli/Soft/59.jpg,left,15,left,2.0253548949986,1,Fix2-6,6
1,Block3,Fix1,stimuli/Sad/14.jpg,right,16,right,0.747301514998981,1,Fix1-7,7
1,Block3,Fix1,stimuli/Sad/59.jpg,right,17,right,0.601453700001002,1,Fix1-8,8
1,Block3,Fix1,stimuli/Sad/44.jpg,right,18,right,0.543607070001599,1,Fix1-9,9
1,Block3,Fix1,stimuli/Sad/45.jpg,right,19,right,0.650112171999353,1,Fix1-10,10
1,Block3,Cond,stimuli/Smell/52.jpg,left,20,left,2.45327707999968,1,Cond-5,5
1,Block3,Fix1,stimuli/Sad/20.jpg,right,21,right,0.65480964499875,1,Fix1-11,11
1,Block3,Fix2,stimuli/Soft/2.jpg,left,22,left,1.26356549200136,1,Fix2-7,7
1,Block3,Cond,stimuli/Smell/25.jpg,right,23,right,1.70527464999759,1,Cond-6,6
1,Block3,Cond,stimuli/Smell/54.jpg,left,24,left,1.3229671270019,1,Cond-7,7
1,Block3,Cond,stimuli/Smell/33.jpg,right,25,right,0.898115576997952,1,Cond-8,8
1,Block3,Fix1,stimuli/Sad/37.jpg,right,26,right,1.01052301300297,1,Fix1-12,12
1,Block3,Fix1,stimuli/Sad/5.jpg,right,27,right,0.664358088000881,1,Fix1-13,13
1,Block3,Fix1,stimuli/Sad/15.jpg,right,28,right,1.49110059500163,1,Fix1-14,14
1,Block3,Fix1,stimuli/Sad/51.jpg,right,29,right,3.38942770499852,1,Fix1-15,15
1,Block3,Fix1,stimuli/Sad/8.jpg,right,30,right,1.48275872200247,1,Fix1-16,16
1,Block3,Cond,stimuli/Smell/1.jpg,left,31,left,1.28196083199873,1,Cond-9,9
1,Block3,Fix2,stimuli/Soft/24.jpg,left,32,left,1.08089472000211,1,Fix2-8,8
1,Block3,Fix1,stimuli/Sad/23.jpg,right,33,right,0.71406808699976,1,Fix1-17,17
1,Block3,Fix2,stimuli/Soft/19.jpg,left,34,left,2.34360014200138,1,Fix2-9,9
1,Block3,Cond,stimuli/Smell/58.jpg,right,35,right,1.35081031200025,1,Cond-10,10
1,Block3,Fix2,stimuli/Soft/0.jpg,left,36,left,0.992694647997268,1,Fix2-10,10
1,Block3,Cond,stimuli/Smell/19.jpg,right,37,right,2.26519503199961,1,Cond-11,11
1,Block3,Cond,stimuli/Smell/7.jpg,left,38,left,0.772580802997254,1,Cond-12,12
1,Block3,Fix2,stimuli/Soft/58.jpg,left,39,left,1.06685944199853,1,Fix2-11,11
1,Block3,Fix2,stimuli/Soft/11.jpg,left,40,left,1.47096224800043,1,Fix2-12,12
1,Block3,Fix2,stimuli/Soft/41.jpg,left,41,left,0.654028790002485,1,Fix2-13,13
1,Block3,Cond,stimuli/Smell/8.jpg,right,42,right,1.12578430500071,1,Cond-13,13
1,Block3,Fix1,stimuli/Sad/36.jpg,right,43,right,0.851208652999048,1,Fix1-18,18
1,Block3,Cond,stimuli/Smell/22.jpg,left,44,left,2.37002608499824,1,Cond-14,14
1,Block3,Fix2,stimuli/Soft/29.jpg,left,45,left,0.932568328000343,1,Fix2-14,14
1,Block3,Cond,stimuli/Smell/57.jpg,right,46,right,0.955481114997383,1,Cond-15,15
1,Block3,Fix1,stimuli/Sad/57.jpg,right,47,right,0.683596626997314,1,Fix1-19,19
1,Block3,Fix2,stimuli/Soft/28.jpg,left,48,left,0.737553947998094,1,Fix2-15,15
1,Block3,Fix1,stimuli/Sad/54.jpg,right,49,right,1.13832506999825,1,Fix1-20,20
1,Block3,Cond,stimuli/Smell/51.jpg,left,50,left,1.22365869999703,1,Cond-16,16
1,Block3,Cond,stimuli/Smell/13.jpg,right,51,right,0.824270856999647,1,Cond-17,17
1,Block3,Fix2,stimuli/Soft/46.jpg,left,52,left,0.989935544999753,1,Fix2-16,16
1,Block3,Fix1,stimuli/Sad/22.jpg,right,53,right,1.61144039499777,1,Fix1-21,21
1,Block3,Fix1,stimuli/Sad/58.jpg,right,54,right,0.542991377998987,1,Fix1-22,22
1,Block3,Fix2,stimuli/Soft/40.jpg,left,55,left,1.4424916450007,1,Fix2-17,17
1,Block3,Cond,stimuli/Smell/41.jpg,right,56,right,2.38100941499943,1,Cond-18,18
1,Block3,Fix2,stimuli/Soft/21.jpg,left,57,left,0.909810242999811,1,Fix2-18,18
1,Block3,Fix1,stimuli/Sad/30.jpg,right,58,right,1.27256969800146,1,Fix1-23,23
1,Block3,Fix1,stimuli/Sad/4.jpg,right,59,right,0.726603939998313,1,Fix1-24,24
1,Block3,Cond,stimuli/Smell/42.jpg,left,60,left,0.929746742000134,1,Cond-19,19
1,Block3,Fix1,stimuli/Sad/38.jpg,right,61,right,1.09092407299977,1,Fix1-25,25
1,Block3,Fix1,stimuli/Sad/24.jpg,right,62,right,2.48924228200121,1,Fix1-26,26
1,Block3,Cond,stimuli/Smell/35.jpg,left,63,left,1.30015145500147,1,Cond-20,20
1,Block3,Fix2,stimuli/Soft/57.jpg,left,64,left,0.512103099998058,1,Fix2-19,19
1,Block3,Fix2,stimuli/Soft/7.jpg,left,65,left,0.932314775000123,1,Fix2-20,20
1,Block3,Cond,stimuli/Smell/31.jpg,right,66,right,1.19313996500205,1,Cond-21,21
1,Block3,Fix2,stimuli/Soft/53.jpg,left,67,left,0.941436435001378,1,Fix2-21,21
1,Block3,Fix2,stimuli/Soft/38.jpg,left,68,left,3.32045841299987,1,Fix2-22,22
1,Block3,Fix2,stimuli/Soft/5.jpg,left,69,left,1.48234732000128,1,Fix2-23,23
1,Block3,Fix2,stimuli/Soft/3.jpg,left,70,left,0.801271734999318,1,Fix2-24,24
1,Block3,Fix1,stimuli/Sad/3.jpg,right,71,right,0.733735764999437,1,Fix1-27,27
1,Block3,Fix1,stimuli/Sad/2.jpg,right,72,right,0.512595385000168,1,Fix1-28,28
1,Block3,Fix1,stimuli/Sad/19.jpg,right,73,right,0.539389378001943,1,Fix1-29,29
1,Block3,Fix2,stimuli/Soft/37.jpg,left,74,left,0.972855389998585,1,Fix2-25,25
1,Block3,Fix2,stimuli/Soft/52.jpg,left,75,left,1.11999250699955,1,Fix2-26,26
1,Block3,Cond,stimuli/Smell/44.jpg,right,76,right,1.26214303500092,1,Cond-22,22
1,Block3,Fix2,stimuli/Soft/17.jpg,left,77,left,0.841832919999433,1,Fix2-27,27
1,Block3,Cond,stimuli/Smell/3.jpg,right,78,right,1.86020781199841,1,Cond-23,23
1,Block3,Fix1,stimuli/Sad/50.jpg,right,79,right,0.709969455001556,1,Fix1-30,30
1,Block3,Fix2,stimuli/Soft/33.jpg,left,80,left,1.41474648499934,1,Fix2-28,28
1,Block3,Fix2,stimuli/Soft/36.jpg,left,81,right,3.20587681999677,0,Fix2-29,29
1,Block3,Fix2,stimuli/Soft/6.jpg,left,82,left,2.76909480999893,1,Fix2-30,30
1,Block3,Fix1,stimuli/Sad/10.jpg,right,83,right,0.720509765000315,1,Fix1-31,31
1,Block3,Cond,stimuli/Smell/38.jpg,left,84,left,1.4201427950029,1,Cond-24,24
1,Block3,Fix1,stimuli/Sad/7.jpg,right,85,right,0.551727057001699,1,Fix1-32,32
1,Block3,Fix1,stimuli/Sad/6.jpg,right,86,right,1.24245182300001,1,Fix1-33,33
1,Block3,Cond,stimuli/Smell/12.jpg,left,87,left,1.12100675299735,1,Cond-25,25
1,Block3,Cond,stimuli/Smell/45.jpg,right,88,right,1.1331671400003,1,Cond-26,26
1,Block3,Fix2,stimuli/Soft/16.jpg,left,89,left,0.851022398001078,1,Fix2-31,31
1,Block3,Fix1,stimuli/Sad/25.jpg,right,90,right,1.43104222999682,1,Fix1-34,34
1,Block3,Fix2,stimuli/Soft/22.jpg,left,91,left,1.14377158299976,1,Fix2-32,32
1,Block3,Fix1,stimuli/Sad/31.jpg,right,92,right,4.41728808699918,1,Fix1-35,35
1,Block3,Fix2,stimuli/Soft/48.jpg,left,93,left,0.674187985001481,1,Fix2-33,33
1,Block3,Cond,stimuli/Smell/47.jpg,right,94,right,0.774313080000866,1,Cond-27,27
1,Block3,Cond,stimuli/Smell/23.jpg,left,95,left,0.973772389999795,1,Cond-28,28
1,Block3,Fix1,stimuli/Sad/52.jpg,right,96,right,0.870584502001293,1,Fix1-36,36
1,Block3,Fix1,stimuli/Sad/48.jpg,right,97,right,0.661648119999882,1,Fix1-37,37
1,Block3,Fix2,stimuli/Soft/13.jpg,left,98,left,1.01132714699997,1,Fix2-34,34
1,Block3,Cond,stimuli/Smell/16.jpg,right,99,right,0.797186019997753,1,Cond-29,29
1,Block3,Fix2,stimuli/Soft/18.jpg,left,100,left,0.752491682000255,1,Fix2-35,35
1,Block3,Fix1,stimuli/Sad/12.jpg,right,101,right,1.47141832499983,1,Fix1-38,38
1,Block3,Cond,stimuli/Smell/55.jpg,left,102,left,0.671608472999651,1,Cond-30,30
1,Block3,Cond,stimuli/Smell/0.jpg,right,103,right,0.869730553000409,1,Cond-31,31
1,Block3,Fix2,stimuli/Soft/44.jpg,left,104,left,0.933484872999543,1,Fix2-36,36
1,Block3,Fix2,stimuli/Soft/26.jpg,left,105,left,2.79065355700004,1,Fix2-37,37
1,Block3,Cond,stimuli/Smell/24.jpg,right,106,right,1.02696193499651,1,Cond-32,32
1,Block3,Cond,stimuli/Smell/18.jpg,left,107,left,0.724182109999674,1,Cond-33,33
1,Block3,Fix2,stimuli/Soft/56.jpg,left,108,left,1.18233156000133,1,Fix2-38,38
1,Block3,Cond,stimuli/Smell/56.jpg,right,109,right,0.902521225001692,1,Cond-34,34
1,Block3,Fix1,stimuli/Sad/13.jpg,right,110,right,1.4630963080017,1,Fix1-39,39
1,Block3,Fix1,stimuli/Sad/39.jpg,right,111,right,2.49237462499877,1,Fix1-40,40
1,Block3,Fix2,stimuli/Soft/9.jpg,left,112,left,2.32344937200105,1,Fix2-39,39
1,Block3,Cond,stimuli/Smell/53.jpg,right,113,right,2.39240345000144,1,Cond-35,35
1,Block3,Fix2,stimuli/Soft/10.jpg,left,114,left,1.28874665499825,1,Fix2-40,40
1,Block3,Cond,stimuli/Smell/26.jpg,right,115,right,0.911055060001672,1,Cond-36,36
1,Block3,Fix2,stimuli/Soft/43.jpg,left,116,left,1.89703068800009,1,Fix2-41,41
1,Block3,Fix2,stimuli/Soft/25.jpg,left,117,left,1.46532140999989,1,Fix2-42,42
1,Block3,Fix2,stimuli/Soft/42.jpg,left,118,left,0.66609276699819,1,Fix2-43,43
1,Block3,Fix1,stimuli/Sad/42.jpg,right,119,right,0.906853084998147,1,Fix1-41,41
1,Block3,Fix1,stimuli/Sad/28.jpg,right,120,right,0.941686750000372,1,Fix1-42,42
1,Block3,Cond,stimuli/Smell/21.jpg,left,121,left,0.715152504999423,1,Cond-37,37
1,Block3,Cond,stimuli/Smell/49.jpg,right,122,right,0.956102972999361,1,Cond-38,38
1,Block3,Fix2,stimuli/Soft/47.jpg,left,123,left,0.964612932002638,1,Fix2-44,44
1,Block3,Cond,stimuli/Smell/2.jpg,right,124,right,1.46637170000031,1,Cond-39,39
1,Block3,Fix1,stimuli/Sad/40.jpg,right,125,right,1.09503558299912,1,Fix1-43,43
1,Block3,Fix2,stimuli/Soft/35.jpg,left,126,left,0.633917858001951,1,Fix2-45,45
1,Block3,Cond,stimuli/Smell/37.jpg,right,127,right,1.41095878000124,1,Cond-40,40
1,Block3,Fix1,stimuli/Sad/29.jpg,right,128,right,0.828674034997675,1,Fix1-44,44
1,Block3,Cond,stimuli/Smell/20.jpg,left,129,left,1.14183005000086,1,Cond-41,41
1,Block3,Cond,stimuli/Smell/46.jpg,right,130,right,0.868071889999555,1,Cond-42,42
1,Block3,Fix1,stimuli/Sad/17.jpg,right,131,right,0.830337673000031,1,Fix1-45,45
1,Block3,Fix2,stimuli/Soft/15.jpg,left,132,left,0.647342844997183,1,Fix2-46,46
1,Block3,Fix1,stimuli/Sad/41.jpg,right,133,right,0.784617599998455,1,Fix1-46,46
1,Block3,Fix2,stimuli/Soft/32.jpg,left,134,left,0.77141985200069,1,Fix2-47,47
1,Block3,Cond,stimuli/Smell/27.jpg,right,135,right,1.59142676000192,1,Cond-43,43
1,Block3,Fix2,stimuli/Soft/55.jpg,left,136,left,0.638289710001118,1,Fix2-48,48
1,Block3,Fix2,stimuli/Soft/31.jpg,left,137,left,1.18641819000186,1,Fix2-49,49
1,Block3,Cond,stimuli/Smell/50.jpg,right,138,right,0.940825310000946,1,Cond-44,44
1,Block3,Fix2,stimuli/Soft/12.jpg,left,139,left,0.658877444999234,1,Fix2-50,50
1,Block3,Cond,stimuli/Smell/6.jpg,right,140,right,1.77718055200239,1,Cond-45,45
1,Block3,Cond,stimuli/Smell/43.jpg,left,141,left,0.760198935000517,1,Cond-46,46
1,Block3,Fix1,stimuli/Sad/33.jpg,right,142,right,1.15491951699732,1,Fix1-47,47
1,Block3,Fix1,stimuli/Sad/35.jpg,right,143,right,1.29373200700138,1,Fix1-48,48
1,Block3,Fix1,stimuli/Sad/53.jpg,right,144,right,0.648272315000213,1,Fix1-49,49
1,Block3,Cond,stimuli/Smell/30.jpg,left,145,left,1.16165271000136,1,Cond-47,47
1,Block3,Fix1,stimuli/Sad/27.jpg,right,146,right,0.948315671997989,1,Fix1-50,50
1,Block3,Cond,stimuli/Smell/40.jpg,left,147,left,0.988471094999113,1,Cond-48,48
1,Block3,Cond,stimuli/Smell/28.jpg,right,148,right,0.939321712001401,1,Cond-49,49
1,Block3,Cond,stimuli/Smell/36.jpg,left,149,left,0.790762177002762,1,Cond-50,50
2,Block1,Fix2,stimuli/Dangerous/15.jpg,right,0,left,7.13040719299897,0,Fix2-1,1
2,Block1,Fix1,stimuli/School/26.jpg,left,1,right,21.5636833980025,0,Fix1-1,1
2,Block1,Cond,stimuli/Small/10.jpg,right,2,left,7.83397734999744,0,Cond-1,1
2,Block1,Fix1,stimuli/School/25.jpg,left,3,right,27.6911336250014,0,Fix1-2,2
2,Block1,Fix2,stimuli/Dangerous/30.jpg,right,4,right,2.27447039699837,1,Fix2-2,2
2,Block1,Fix2,stimuli/Dangerous/42.jpg,right,5,left,18.2403255969984,0,Fix2-3,3
2,Block1,Cond,stimuli/Small/4.jpg,left,6,left,11.5508657450009,1,Cond-2,2
2,Block1,Fix2,stimuli/Dangerous/44.jpg,right,7,right,5.97147856000083,1,Fix2-4,4
2,Block1,Cond,stimuli/Small/39.jpg,left,8,left,10.7527732550006,1,Cond-3,3
2,Block1,Fix2,stimuli/Dangerous/34.jpg,right,9,right,2.65184762300123,1,Fix2-5,5
2,Block1,Cond,stimuli/Small/13.jpg,left,10,left,2.0215830920024,1,Cond-4,4
2,Block1,Fix2,stimuli/Dangerous/6.jpg,right,11,right,0.437221905001934,1,Fix2-6,6
2,Block1,Fix2,stimuli/Dangerous/24.jpg,right,12,left,0.370177497999975,0,Fix2-7,7
2,Block1,Cond,stimuli/Small/20.jpg,left,13,left,6.8911039199993,1,Cond-5,5
2,Block1,Fix2,stimuli/Dangerous/33.jpg,right,14,right,0.676141485000699,1,Fix2-8,8
2,Block1,Cond,stimuli/Small/2.jpg,left,15,left,2.14924530999997,1,Cond-6,6
2,Block1,Fix2,stimuli/Dangerous/41.jpg,right,16,right,1.16661876299986,1,Fix2-9,9
2,Block1,Fix1,stimuli/School/56.jpg,left,17,left,2.3521889980002,1,Fix1-3,3
2,Block1,Cond,stimuli/Small/57.jpg,right,18,left,1.95407088000138,0,Cond-7,7
2,Block1,Fix2,stimuli/Dangerous/58.jpg,right,19,left,1.99644899499981,0,Fix2-10,10
2,Block1,Cond,stimuli/Small/58.jpg,left,20,right,5.68776821700158,0,Cond-8,8
2,Block1,Fix2,stimuli/Dangerous/20.jpg,right,21,left,3.7335337479999,0,Fix2-11,11
2,Block1,Cond,stimuli/Small/29.jpg,left,22,left,1.5842302279998,1,Cond-9,9
2,Block1,Fix2,stimuli/Dangerous/46.jpg,right,23,right,1.3137284229997,1,Fix2-12,12
2,Block1,Fix1,stimuli/School/10.jpg,left,24,left,1.81541792699863,1,Fix1-4,4
2,Block1,Fix1,stimuli/School/50.jpg,left,25,right,1.06706279500213,0,Fix1-5,5
2,Block1,Cond,stimuli/Small/19.jpg,right,26,left,1.9251750479998,0,Cond-10,10
2,Block1,Fix1,stimuli/School/28.jpg,left,27,left,1.21193775999927,1,Fix1-6,6
2,Block1,Fix1,stimuli/School/35.jpg,left,28,right,0.936784657998942,0,Fix1-7,7
2,Block1,Fix1,stimuli/School/39.jpg,left,29,left,1.02530217000094,1,Fix1-8,8
2,Block1,Cond,stimuli/Small/42.jpg,right,30,left,0.597547524997935,0,Cond-11,11
2,Block1,Fix2,stimuli/Dangerous/31.jpg,right,31,right,3.76318615799755,1,Fix2-13,13
2,Block1,Cond,stimuli/Small/25.jpg,left,32,right,1.82987845000025,0,Cond-12,12
2,Block1,Cond,stimuli/Small/9.jpg,right,33,left,1.77869800999906,0,Cond-13,13
2,Block1,Fix1,stimuli/School/9.jpg,left,34,right,4.53114663499946,0,Fix1-9,9
2,Block1,Fix1,stimuli/School/23.jpg,left,35,left,3.72988389500097,1,Fix1-10,10
2,Block1,Fix1,stimuli/School/54.jpg,left,36,left,1.35047292300078,1,Fix1-11,11
2,Block1,Cond,stimuli/Small/43.jpg,right,37,left,0.923019122001278,0,Cond-14,14
2,Block1,Fix2,stimuli/Dangerous/22.jpg,right,38,right,0.938685927998449,1,Fix2-14,14
2,Block1,Fix2,stimuli/Dangerous/43.jpg,right,39,right,1.89709507799853,1,Fix2-15,15
2,Block1,Cond,stimuli/Small/36.jpg,left,40,right,1.36324119700294,0,Cond-15,15
2,Block1,Fix2,stimuli/Dangerous/38.jpg,right,41,left,1.19232026700047,0,Fix2-16,16
2,Block1,Fix1,stimuli/School/18.jpg,left,42,right,0.698984065002151,0,Fix1-12,12
2,Block1,Fix1,stimuli/School/36.jpg,left,43,right,0.400015363000421,0,Fix1-13,13
2,Block1,Fix1,stimuli/School/48.jpg,left,44,right,0.461147197998798,0,Fix1-14,14
2,Block1,Fix1,stimuli/School/42.jpg,left,45,right,0.537856642000406,0,Fix1-15,15
2,Block1,Cond,stimuli/Small/23.jpg,right,46,left,1.33929831999922,0,Cond-16,16
2,Block1,Cond,stimuli/Small/38.jpg,left,47,right,0.668718223001633,0,Cond-17,17
2,Block1,Cond,stimuli/Small/55.jpg,right,48,left,3.52283253499991,0,Cond-18,18
2,Block1,Cond,stimuli/Small/1.jpg,left,49,right,6.36434257200017,0,Cond-19,19
2,Block1,Fix1,stimuli/School/6.jpg,left,50,right,2.0968970569993,0,Fix1-16,16
2,Block1,Fix2,stimuli/Dangerous/18.jpg,right,51,left,1.57126075000269,0,Fix2-17,17
2,Block1,Fix1,stimuli/School/1.jpg,left,52,left,3.79692238200005,1,Fix1-17,17
2,Block1,Cond,stimuli/Small/33.jpg,right,53,right,1.25710525799877,1,Cond-20,20
2,Block1,Cond,stimuli/Small/12.jpg,left,54,left,0.946987799998169,1,Cond-21,21
2,Block1,Cond,stimuli/Small/17.jpg,right,55,right,0.742255174998718,1,Cond-22,22
2,Block1,Fix1,stimuli/School/17.jpg,left,56,left,2.40680483200049,1,Fix1-18,18
2,Block1,Cond,stimuli/Small/11.jpg,right,57,right,0.664690714998869,1,Cond-23,23
2,Block1,Fix1,stimuli/School/33.jpg,left,58,left,1.02400629300246,1,Fix1-19,19
2,Block1,Cond,stimuli/Small/18.jpg,right,59,right,0.77340686000025,1,Cond-24,24
2,Block1,Fix2,stimuli/Dangerous/61.jpg,right,60,left,0.621566788002383,0,Fix2-18,18
2,Block1,Fix2,stimuli/Dangerous/32.jpg,right,61,left,1.47733576199971,0,Fix2-19,19
2,Block1,Fix2,stimuli/Dangerous/28.jpg,right,62,right,0.583710505001363,1,Fix2-20,20
2,Block1,Cond,stimuli/Small/16.jpg,left,63,right,1.80303668499982,0,Cond-25,25
2,Block1,Cond,stimuli/Small/14.jpg,right,64,left,0.48681342999771,0,Cond-26,26
2,Block1,Fix2,stimuli/Dangerous/35.jpg,right,65,right,0.308348124999611,1,Fix2-21,21
2,Block1,Fix2,stimuli/Dangerous/3.jpg,right,66,left,1.38627417200041,0,Fix2-22,22
2,Block1,Cond,stimuli/Small/45.jpg,left,67,right,0.4394674819996,0,Cond-27,27
2,Block1,Fix2,stimuli/Dangerous/10.jpg,right,68,right,1.96893782199913,1,Fix2-23,23
2,Block1,Fix2,stimuli/Dangerous/9.jpg,right,69,left,2.76274380700124,0,Fix2-24,24
2,Block1,Cond,stimuli/Small/31.jpg,left,70,left,1.0437496630002,1,Cond-28,28
2,Block1,Fix1,stimuli/School/19.jpg,left,71,left,4.2296741220016,1,Fix1-20,20
2,Block1,Fix1,stimuli/School/11.jpg,left,72,left,1.08701935799763,1,Fix1-21,21
2,Block1,Fix1,stimuli/School/31.jpg,left,73,left,1.1682653429998,1,Fix1-22,22
2,Block1,Fix1,stimuli/School/21.jpg,left,74,right,2.220778015002,0,Fix1-23,23
2,Block1,Fix1,stimuli/School/55.jpg,left,75,left,1.74545573499927,1,Fix1-24,24
2,Block1,Cond,stimuli/Small/32.jpg,right,76,right,1.20292341200184,1,Cond-29,29
2,Block1,Fix2,stimuli/Dangerous/48.jpg,right,77,right,0.907716253001126,1,Fix2-25,25
2,Block1,Cond,stimuli/Small/5.jpg,left,78,left,3.19224831199972,1,Cond-30,30
2,Block1,Fix1,stimuli/School/37.jpg,left,79,left,2.75900973500029,1,Fix1-25,25
2,Block1,Fix1,stimuli/School/27.jpg,left,80,left,3.71340159999818,1,Fix1-26,26
2,Block1,Cond,stimuli/Small/28.jpg,right,81,right,2.85394904799978,1,Cond-31,31
2,Block1,Cond,stimuli/Small/30.jpg,left,82,right,4.09522927700164,0,Cond-32,32
2,Block1,Fix1,stimuli/School/59.jpg,left,83,left,1.67680848500095,1,Fix1-27,27
2,Block1,Fix2,stimuli/Dangerous/7.jpg,right,84,right,0.939134865002416,1,Fix2-26,26
2,Block1,Cond,stimuli/Small/37.jpg,left,85,left,1.21667213999899,1,Cond-33,33
2,Block1,Fix1,stimuli/School/13.jpg,left,86,left,2.25460793499951,1,Fix1-28,28
2,Block1,Fix2,stimuli/Dangerous/14.jpg,right,87,right,0.811347582002782,1,Fix2-27,27
2,Block1,Cond,stimuli/Small/50.jpg,left,88,right,5.09537066000121,0,Cond-34,34
2,Block1,Fix2,stimuli/Dangerous/63.jpg,right,89,right,0.695765561998996,1,Fix2-28,28
2,Block1,Fix2,stimuli/Dangerous/0.jpg,right,90,right,0.838707451999653,1,Fix2-29,29
2,Block1,Fix1,stimuli/School/32.jpg,left,91,right,11.8179399300025,0,Fix1-29,29
2,Block1,Fix1,stimuli/School/29.jpg,left,92,left,1.5343621030006,1,Fix1-30,30
2,Block1,Cond,stimuli/Small/7.jpg,right,93,left,1.06887415800156,0,Cond-35,35
2,Block1,Fix2,stimuli/Dangerous/19.jpg,right,94,right,1.1845639029998,1,Fix2-30,30
2,Block1,Cond,stimuli/Small/51.jpg,left,95,left,1.46879121999882,1,Cond-36,36
2,Block1,Fix2,stimuli/Dangerous/4.jpg,right,96,right,1.69908946299984,1,Fix2-31,31
2,Block1,Cond,stimuli/Small/24.jpg,left,97,left,10.6183535400014,1,Cond-37,37
2,Block1,Fix1,stimuli/School/58.jpg,left,98,right,1.09764801300116,0,Fix1-31,31
2,Block1,Cond,stimuli/Small/35.jpg,right,99,left,0.720089099999313,0,Cond-38,38
2,Block1,Cond,stimuli/Small/40.jpg,left,100,left,1.30214088499997,1,Cond-39,39
2,Block1,Cond,stimuli/Small/3.jpg,right,101,left,1.90047913200033,0,Cond-40,40
2,Block1,Fix1,stimuli/School/38.jpg,left,102,left,1.05264879999959,1,Fix1-32,32
2,Block1,Fix2,stimuli/Dangerous/26.jpg,right,103,right,1.15977231800207,1,Fix2-32,32
2,Block1,Fix1,stimuli/School/51.jpg,left,104,left,1.178170555002,1,Fix1-33,33
2,Block1,Cond,stimuli/Small/56.jpg,right,105,left,3.92860232000021,0,Cond-41,41
2,Block1,Cond,stimuli/Small/44.jpg,left,106,right,1.85297866199835,0,Cond-42,42
2,Block1,Fix2,stimuli/Dangerous/36.jpg,right,107,right,1.01962707700295,1,Fix2-33,33
2,Block1,Cond,stimuli/Small/54.jpg,left,108,left,5.48189783999987,1,Cond-43,43
2,Block1,Fix1,stimuli/School/0.jpg,left,109,left,2.14011175999985,1,Fix1-34,34
2,Block1,Fix1,stimuli/School/57.jpg,left,110,right,2.01327840500016,0,Fix1-35,35
2,Block1,Fix1,stimuli/School/24.jpg,left,111,left,1.49208012500094,1,Fix1-36,36
2,Block1,Fix2,stimuli/Dangerous/45.jpg,right,112,right,0.951121849997435,1,Fix2-34,34
2,Block1,Fix2,stimuli/Dangerous/40.jpg,right,113,right,0.891160495000804,1,Fix2-35,35
2,Block1,Fix2,stimuli/Dangerous/39.jpg,right,114,right,1.00660369699835,1,Fix2-36,36
2,Block1,Cond,stimuli/Small/59.jpg,left,115,left,1.18834706200141,1,Cond-44,44
2,Block1,Fix2,stimuli/Dangerous/21.jpg,right,116,right,0.8106592419972,1,Fix2-37,37
2,Block1,Fix1,stimuli/School/15.jpg,left,117,left,0.886780765002186,1,Fix1-37,37
2,Block1,Fix1,stimuli/School/5.jpg,left,118,left,0.913975323001068,1,Fix1-38,38
2,Block1,Fix1,stimuli/School/46.jpg,left,119,right,4.53110816499975,0,Fix1-39,39
2,Block1,Fix1,stimuli/School/4.jpg,left,120,left,0.83427437499995,1,Fix1-40,40
2,Block1,Fix2,stimuli/Dangerous/8.jpg,right,121,right,0.983337735000532,1,Fix2-38,38
2,Block1,Fix2,stimuli/Dangerous/17.jpg,right,122,right,2.05506788699859,1,Fix2-39,39
2,Block1,Fix2,stimuli/Dangerous/1.jpg,right,123,right,2.27167388999806,1,Fix2-40,40
2,Block1,Fix1,stimuli/School/3.jpg,left,124,left,4.45051185800185,1,Fix1-41,41
2,Block1,Fix2,stimuli/Dangerous/37.jpg,right,125,right,1.35546137499841,1,Fix2-41,41
2,Block1,Fix1,stimuli/School/22.jpg,left,126,left,2.31325607300096,1,Fix1-42,42
2,Block1,Fix2,stimuli/Dangerous/51.jpg,right,127,right,0.711074390001158,1,Fix2-42,42
2,Block1,Cond,stimuli/Small/6.jpg,left,128,left,1.32872632199724,1,Cond-45,45
2,Block1,Fix1,stimuli/School/12.jpg,left,129,left,0.958639905002201,1,Fix1-43,43
2,Block1,Fix2,stimuli/Dangerous/13.jpg,right,130,right,1.10964392299866,1,Fix2-43,43
2,Block1,Fix1,stimuli/School/49.jpg,left,131,right,1.37452886000028,0,Fix1-44,44
2,Block1,Fix2,stimuli/Dangerous/2.jpg,right,132,right,0.962442627998826,1,Fix2-44,44
2,Block1,Cond,stimuli/Small/52.jpg,left,133,left,2.70252840499961,1,Cond-46,46
2,Block1,Cond,stimuli/Small/27.jpg,right,134,left,1.38305014800062,0,Cond-47,47
2,Block1,Fix1,stimuli/School/41.jpg,left,135,right,2.32970987000226,0,Fix1-45,45
2,Block1,Fix1,stimuli/School/40.jpg,left,136,left,1.33454424700176,1,Fix1-46,46
2,Block1,Fix2,stimuli/Dangerous/57.jpg,right,137,right,2.32109470700016,1,Fix2-45,45
2,Block1,Cond,stimuli/Small/21.jpg,left,138,left,2.13245605999691,1,Cond-48,48
2,Block1,Cond,stimuli/Small/48.jpg,right,139,left,5.30269592199693,0,Cond-49,49
2,Block1,Fix2,stimuli/Dangerous/12.jpg,right,140,right,0.914923362000991,1,Fix2-46,46
2,Block1,Fix1,stimuli/School/2.jpg,left,141,left,5.07131346000097,1,Fix1-47,47
2,Block1,Fix1,stimuli/School/16.jpg,left,142,right,3.79297715800203,0,Fix1-48,48
2,Block1,Fix2,stimuli/Dangerous/23.jpg,right,143,right,1.34988755500308,1,Fix2-47,47
2,Block1,Fix2,stimuli/Dangerous/5.jpg,right,144,right,0.919547752000653,1,Fix2-48,48
2,Block1,Fix2,stimuli/Dangerous/56.jpg,right,145,right,1.47240389500075,1,Fix2-49,49
2,Block1,Cond,stimuli/Small/22.jpg,left,146,left,1.03358029500305,1,Cond-50,50
2,Block1,Fix1,stimuli/School/7.jpg,left,147,left,1.27501542299797,1,Fix1-49,49
2,Block1,Fix1,stimuli/School/43.jpg,left,148,right,1.78603321300034,0,Fix1-50,50
2,Block1,Fix2,stimuli/Dangerous/27.jpg,right,149,right,0.864466319999337,1,Fix2-50,50
2,Block2,Fix2,stimuli/Healthy/38.jpg,left,0,left,3.51350693700078,1,Fix2-1,1
2,Block2,Fix1,stimuli/Old/36.jpg,right,1,right,1.76818958199874,1,Fix1-1,1
2,Block2,Cond,stimuli/Wealth/56.jpg,left,2,left,2.39920446999895,1,Cond-1,1
2,Block2,Fix1,stimuli/Old/58.jpg,right,3,left,2.00032479500078,0,Fix1-2,2
2,Block2,Fix2,stimuli/Healthy/67.jpg,left,4,left,3.49528881500009,1,Fix2-2,2
2,Block2,Fix1,stimuli/Old/40.jpg,right,5,right,1.36803972000052,1,Fix1-3,3
2,Block2,Fix1,stimuli/Old/55.jpg,right,6,left,2.40237505500045,0,Fix1-4,4
2,Block2,Fix2,stimuli/Healthy/37.jpg,left,7,right,1.45197905199893,0,Fix2-3,3
2,Block2,Fix2,stimuli/Healthy/13.jpg,left,8,left,1.01722657999926,1,Fix2-4,4
2,Block2,Fix2,stimuli/Healthy/10.jpg,left,9,left,1.13689199299915,1,Fix2-5,5
2,Block2,Cond,stimuli/Wealth/5.jpg,right,10,right,1.3260480429999,1,Cond-2,2
2,Block2,Fix2,stimuli/Healthy/1.jpg,left,11,left,4.86338030299885,1,Fix2-6,6
2,Block2,Fix1,stimuli/Old/20.jpg,right,12,right,0.845158895001077,1,Fix1-5,5
2,Block2,Fix2,stimuli/Healthy/4.jpg,left,13,left,1.19469505300003,1,Fix2-7,7
2,Block2,Cond,stimuli/Wealth/41.jpg,right,14,left,2.33406990000003,0,Cond-3,3
2,Block2,Cond,stimuli/Wealth/57.jpg,left,15,left,2.1252360269973,1,Cond-4,4
2,Block2,Fix2,stimuli/Healthy/58.jpg,left,16,left,3.90193146000092,1,Fix2-8,8
2,Block2,Fix1,stimuli/Old/49.jpg,right,17,left,1.79121089800174,0,Fix1-6,6
2,Block2,Fix1,stimuli/Old/29.jpg,right,18,left,6.1507841629973,0,Fix1-7,7
2,Block2,Cond,stimuli/Wealth/26.jpg,left,19,left,1.92709668599855,1,Cond-5,5
2,Block2,Fix1,stimuli/Old/37.jpg,right,20,right,1.1205030050005,1,Fix1-8,8
2,Block2,Fix2,stimuli/Healthy/42.jpg,left,21,left,5.37446088300203,1,Fix2-9,9
2,Block2,Fix2,stimuli/Healthy/55.jpg,left,22,left,1.85034567999901,1,Fix2-10,10
2,Block2,Fix1,stimuli/Old/15.jpg,right,23,left,1.39899132299979,0,Fix1-9,9
2,Block2,Fix2,stimuli/Healthy/8.jpg,left,24,left,3.08834355499857,1,Fix2-11,11
2,Block2,Cond,stimuli/Wealth/17.jpg,right,25,left,2.96709835199727,0,Cond-6,6
2,Block2,Cond,stimuli/Wealth/27.jpg,left,26,right,2.02168470800098,0,Cond-7,7
2,Block2,Cond,stimuli/Wealth/0.jpg,right,27,left,1.20353395499842,0,Cond-8,8
2,Block2,Fix2,stimuli/Healthy/5.jpg,left,28,left,4.02121853999779,1,Fix2-12,12
2,Block2,Fix2,stimuli/Healthy/29.jpg,left,29,left,5.31712551999954,1,Fix2-13,13
2,Block2,Cond,stimuli/Wealth/53.jpg,right,30,right,1.8556280820012,1,Cond-9,9
2,Block2,Fix1,stimuli/Old/2.jpg,right,31,right,1.27928678000171,1,Fix1-10,10
2,Block2,Fix2,stimuli/Healthy/7.jpg,left,32,left,1.11988639499759,1,Fix2-14,14
2,Block2,Fix1,stimuli/Old/7.jpg,right,33,right,2.73575622999851,1,Fix1-11,11
2,Block2,Cond,stimuli/Wealth/10.jpg,left,34,right,1.57146932500109,0,Cond-10,10
2,Block2,Fix2,stimuli/Healthy/68.jpg,left,35,left,4.80085318499914,1,Fix2-15,15
2,Block2,Cond,stimuli/Wealth/24.jpg,right,36,left,1.32581821200074,0,Cond-11,11
2,Block2,Cond,stimuli/Wealth/12.jpg,left,37,left,1.9548671900011,1,Cond-12,12
2,Block2,Fix2,stimuli/Healthy/20.jpg,left,38,left,0.887552752999909,1,Fix2-16,16
2,Block2,Fix2,stimuli/Healthy/44.jpg,left,39,left,0.933797842997592,1,Fix2-17,17
2,Block2,Fix2,stimuli/Healthy/27.jpg,left,40,left,1.01631241300129,1,Fix2-18,18
2,Block2,Fix2,stimuli/Healthy/59.jpg,left,41,left,4.04640600200219,1,Fix2-19,19
2,Block2,Fix1,stimuli/Old/46.jpg,right,42,right,1.4384746249998,1,Fix1-12,12
2,Block2,Fix2,stimuli/Healthy/39.jpg,left,43,left,1.07877543499853,1,Fix2-20,20
2,Block2,Fix1,stimuli/Old/38.jpg,right,44,right,1.21380201000284,1,Fix1-13,13
2,Block2,Fix2,stimuli/Healthy/66.jpg,left,45,left,0.948683775000973,1,Fix2-21,21
2,Block2,Fix1,stimuli/Old/17.jpg,right,46,right,0.910977817002276,1,Fix1-14,14
2,Block2,Fix1,stimuli/Old/14.jpg,right,47,right,19.2829311919995,1,Fix1-15,15
2,Block2,Cond,stimuli/Wealth/43.jpg,left,48,right,1.07885988700218,0,Cond-13,13
2,Block2,Fix2,stimuli/Healthy/41.jpg,left,49,left,2.96177554500173,1,Fix2-22,22
2,Block2,Cond,stimuli/Wealth/40.jpg,right,50,left,0.931386866999674,0,Cond-14,14
2,Block2,Fix1,stimuli/Old/43.jpg,right,51,right,1.05244662999758,1,Fix1-16,16
2,Block2,Cond,stimuli/Wealth/44.jpg,left,52,right,8.25986225300221,0,Cond-15,15
2,Block2,Fix1,stimuli/Old/10.jpg,right,53,right,1.52606680500321,1,Fix1-17,17
2,Block2,Fix1,stimuli/Old/3.jpg,right,54,right,1.87513566300186,1,Fix1-18,18
2,Block2,Cond,stimuli/Wealth/13.jpg,left,55,left,3.17098068000269,1,Cond-16,16
2,Block2,Cond,stimuli/Wealth/14.jpg,right,56,left,1.02440675000253,0,Cond-17,17
2,Block2,Fix2,stimuli/Healthy/65.jpg,left,57,left,1.13808898500065,1,Fix2-23,23
2,Block2,Cond,stimuli/Wealth/45.jpg,right,58,left,2.11039769700074,0,Cond-18,18
2,Block2,Cond,stimuli/Wealth/31.jpg,left,59,right,35.004332028002,0,Cond-19,19
2,Block2,Cond,stimuli/Wealth/46.jpg,right,60,left,0.799162133000209,0,Cond-20,20
2,Block2,Cond,stimuli/Wealth/52.jpg,left,61,right,1.54255810700124,0,Cond-21,21
2,Block2,Fix2,stimuli/Healthy/51.jpg,left,62,left,0.757879009997851,1,Fix2-24,24
2,Block2,Fix2,stimuli/Healthy/32.jpg,left,63,left,0.72868354199818,1,Fix2-25,25
2,Block2,Fix2,stimuli/Healthy/45.jpg,left,64,left,0.764952622997953,1,Fix2-26,26
2,Block2,Cond,stimuli/Wealth/19.jpg,right,65,right,0.928032325002278,1,Cond-22,22
2,Block2,Fix1,stimuli/Old/8.jpg,right,66,right,1.25168499999927,1,Fix1-19,19
2,Block2,Cond,stimuli/Wealth/22.jpg,left,67,right,69.4118885969983,0,Cond-23,23
2,Block2,Cond,stimuli/Wealth/11.jpg,right,68,left,1.50878338499751,0,Cond-24,24
2,Block2,Fix2,stimuli/Healthy/43.jpg,left,69,left,0.661601135001547,1,Fix2-27,27
2,Block2,Fix2,stimuli/Healthy/6.jpg,left,70,left,1.05650484799844,1,Fix2-28,28
2,Block2,Fix1,stimuli/Old/21.jpg,right,71,right,1.84555335500045,1,Fix1-20,20
2,Block2,Fix2,stimuli/Healthy/9.jpg,left,72,left,0.810363319997123,1,Fix2-29,29
2,Block2,Cond,stimuli/Wealth/51.jpg,right,73,right,1.39523208000173,1,Cond-25,25
2,Block2,Fix1,stimuli/Old/54.jpg,right,74,left,1.3024636370028,0,Fix1-21,21
2,Block2,Fix2,stimuli/Healthy/53.jpg,left,75,left,0.645375200001581,1,Fix2-30,30
2,Block2,Cond,stimuli/Wealth/49.jpg,right,76,right,0.990756945000612,1,Cond-26,26
2,Block2,Fix1,stimuli/Old/0.jpg,right,77,right,1.47137104500143,1,Fix1-22,22
2,Block2,Cond,stimuli/Wealth/28.jpg,left,78,left,1.17208095700335,1,Cond-27,27
2,Block2,Cond,stimuli/Wealth/20.jpg,right,79,right,5.69045194000137,1,Cond-28,28
2,Block2,Fix1,stimuli/Old/47.jpg,right,80,right,1.53510370199729,1,Fix1-23,23
2,Block2,Cond,stimuli/Wealth/55.jpg,left,81,right,2.18944504499814,0,Cond-29,29
2,Block2,Cond,stimuli/Wealth/37.jpg,right,82,left,2.23188339000262,0,Cond-30,30
2,Block2,Fix2,stimuli/Healthy/3.jpg,left,83,left,0.600781789999019,1,Fix2-31,31
2,Block2,Fix1,stimuli/Old/16.jpg,right,84,left,1.29768873500143,0,Fix1-24,24
2,Block2,Fix2,stimuli/Healthy/33.jpg,left,85,left,0.691765319999831,1,Fix2-32,32
2,Block2,Fix1,stimuli/Old/48.jpg,right,86,right,0.868749217999721,1,Fix1-25,25
2,Block2,Fix1,stimuli/Old/39.jpg,right,87,right,1.10653549700146,1,Fix1-26,26
2,Block2,Fix1,stimuli/Old/18.jpg,right,88,right,0.890617209999618,1,Fix1-27,27
2,Block2,Fix1,stimuli/Old/13.jpg,right,89,right,1.05581148499914,1,Fix1-28,28
2,Block2,Fix2,stimuli/Healthy/57.jpg,left,90,left,2.23846561499886,1,Fix2-33,33
2,Block2,Fix2,stimuli/Healthy/19.jpg,left,91,left,2.37324892800098,1,Fix2-34,34
2,Block2,Fix2,stimuli/Healthy/21.jpg,left,92,left,0.811768819999998,1,Fix2-35,35
2,Block2,Fix2,stimuli/Healthy/0.jpg,left,93,left,1.21748546299932,1,Fix2-36,36
2,Block2,Fix1,stimuli/Old/35.jpg,right,94,right,2.10205387699898,1,Fix1-29,29
2,Block2,Fix2,stimuli/Healthy/56.jpg,left,95,left,1.01009005000014,1,Fix2-37,37
2,Block2,Cond,stimuli/Wealth/35.jpg,right,96,left,2.74128787299924,0,Cond-31,31
2,Block2,Fix1,stimuli/Old/23.jpg,right,97,left,1.43207463500221,0,Fix1-30,30
2,Block2,Cond,stimuli/Wealth/42.jpg,left,98,left,1.84233446199869,1,Cond-32,32
2,Block2,Fix2,stimuli/Healthy/24.jpg,left,99,left,1.40591260699875,1,Fix2-38,38
2,Block2,Cond,stimuli/Wealth/54.jpg,right,100,right,2.05937364499914,1,Cond-33,33
2,Block2,Cond,stimuli/Wealth/4.jpg,left,101,right,1.12823922199823,0,Cond-34,34
2,Block2,Fix2,stimuli/Healthy/48.jpg,left,102,left,0.948290844997246,1,Fix2-39,39
2,Block2,Fix2,stimuli/Healthy/15.jpg,left,103,left,0.762165044998255,1,Fix2-40,40
2,Block2,Cond,stimuli/Wealth/38.jpg,right,104,right,2.87405506999858,1,Cond-35,35
2,Block2,Cond,stimuli/Wealth/21.jpg,left,105,right,0.82780971199827,0,Cond-36,36
2,Block2,Fix2,stimuli/Healthy/36.jpg,left,106,left,3.85064781999972,1,Fix2-41,41
2,Block2,Fix1,stimuli/Old/12.jpg,right,107,right,1.42182837499786,1,Fix1-31,31
2,Block2,Fix2,stimuli/Healthy/69.jpg,left,108,left,2.17915844999879,1,Fix2-42,42
2,Block2,Fix2,stimuli/Healthy/30.jpg,left,109,left,0.836053432998597,1,Fix2-43,43
2,Block2,Cond,stimuli/Wealth/23.jpg,right,110,right,1.84032609199858,1,Cond-37,37
2,Block2,Fix1,stimuli/Old/9.jpg,right,111,right,1.95972991999952,1,Fix1-32,32
2,Block2,Fix1,stimuli/Old/50.jpg,right,112,right,1.23434195499794,1,Fix1-33,33
2,Block2,Fix1,stimuli/Old/5.jpg,right,113,right,0.789310682001087,1,Fix1-34,34
2,Block2,Fix1,stimuli/Old/57.jpg,right,114,right,0.835228784999344,1,Fix1-35,35
2,Block2,Cond,stimuli/Wealth/15.jpg,left,115,left,1.59156397900006,1,Cond-38,38
2,Block2,Fix1,stimuli/Old/26.jpg,right,116,right,1.24805289000142,1,Fix1-36,36
2,Block2,Cond,stimuli/Wealth/47.jpg,left,117,left,1.61727596000128,1,Cond-39,39
2,Block2,Cond,stimuli/Wealth/30.jpg,right,118,right,1.33249989799879,1,Cond-40,40
2,Block2,Cond,stimuli/Wealth/36.jpg,left,119,left,4.11525882000205,1,Cond-41,41
2,Block2,Fix1,stimuli/Old/11.jpg,right,120,left,1.2571651899998,0,Fix1-37,37
2,Block2,Cond,stimuli/Wealth/34.jpg,left,121,left,0.640871866999078,1,Cond-42,42
2,Block2,Fix2,stimuli/Healthy/46.jpg,left,122,left,3.5609309399988,1,Fix2-44,44
2,Block2,Fix1,stimuli/Old/32.jpg,right,123,right,0.820581594998657,1,Fix1-38,38
2,Block2,Cond,stimuli/Wealth/48.jpg,left,124,left,1.76327238500016,1,Cond-43,43
2,Block2,Fix1,stimuli/Old/27.jpg,right,125,right,1.24934395699893,1,Fix1-39,39
2,Block2,Cond,stimuli/Wealth/29.jpg,left,126,left,1.01742870700036,1,Cond-44,44
2,Block2,Fix1,stimuli/Old/42.jpg,right,127,right,0.795452880000084,1,Fix1-40,40
2,Block2,Fix1,stimuli/Old/4.jpg,right,128,right,0.976119963001111,1,Fix1-41,41
2,Block2,Fix2,stimuli/Healthy/31.jpg,left,129,right,1.58109801500177,0,Fix2-45,45
2,Block2,Cond,stimuli/Wealth/18.jpg,right,130,left,1.12520580799901,0,Cond-45,45
2,Block2,Fix2,stimuli/Healthy/52.jpg,left,131,left,0.80946695700186,1,Fix2-46,46
2,Block2,Fix1,stimuli/Old/52.jpg,right,132,right,5.90609068699996,1,Fix1-42,42
2,Block2,Cond,stimuli/Wealth/39.jpg,left,133,right,1.96945947700078,0,Cond-46,46
2,Block2,Fix1,stimuli/Old/34.jpg,right,134,left,2.18246193699815,0,Fix1-43,43
2,Block2,Fix1,stimuli/Old/22.jpg,right,135,left,0.887547357997391,0,Fix1-44,44
2,Block2,Fix1,stimuli/Old/24.jpg,right,136,right,0.998393260000739,1,Fix1-45,45
2,Block2,Cond,stimuli/Wealth/16.jpg,left,137,left,2.12830619299712,1,Cond-47,47
2,Block2,Fix1,stimuli/Old/25.jpg,right,138,right,4.72246611500304,1,Fix1-46,46
2,Block2,Fix1,stimuli/Old/31.jpg,right,139,right,0.886985414999799,1,Fix1-47,47
2,Block2,Fix2,stimuli/Healthy/17.jpg,left,140,left,1.95274054000038,1,Fix2-47,47
2,Block2,Fix1,stimuli/Old/41.jpg,right,141,right,1.91619898000135,1,Fix1-48,48
2,Block2,Cond,stimuli/Wealth/50.jpg,left,142,left,2.18201307699928,1,Cond-48,48
2,Block2,Fix1,stimuli/Old/19.jpg,right,143,right,1.73479378499906,1,Fix1-49,49
2,Block2,Cond,stimuli/Wealth/32.jpg,left,144,left,0.778594963001524,1,Cond-49,49
2,Block2,Fix2,stimuli/Healthy/26.jpg,left,145,left,0.976438828001847,1,Fix2-48,48
2,Block2,Cond,stimuli/Wealth/25.jpg,right,146,left,1.11365485200076,0,Cond-50,50
2,Block2,Fix1,stimuli/Old/44.jpg,right,147,right,0.986148759999196,1,Fix1-50,50
2,Block2,Fix2,stimuli/Healthy/34.jpg,left,148,left,0.990600741999515,1,Fix2-49,49
2,Block2,Fix2,stimuli/Healthy/28.jpg,left,149,left,1.58014635200016,1,Fix2-50,50
2,Block3,Fix1,stimuli/Sad/18.jpg,right,0,left,3.47045482500107,0,Fix1-1,1
2,Block3,Cond,stimuli/Smell/4.jpg,left,1,left,0.971944616998371,1,Cond-1,1
2,Block3,Fix1,stimuli/Sad/9.jpg,right,2,right,0.88420124300319,1,Fix1-2,2
2,Block3,Cond,stimuli/Smell/48.jpg,left,3,left,4.67994581699895,1,Cond-2,2
2,Block3,Fix1,stimuli/Sad/26.jpg,right,4,left,1.3384151149985,0,Fix1-3,3
2,Block3,Fix2,stimuli/Soft/49.jpg,left,5,left,1.28501246000087,1,Fix2-1,1
2,Block3,Fix2,stimuli/Soft/23.jpg,left,6,left,3.98702866200256,1,Fix2-2,2
2,Block3,Cond,stimuli/Smell/34.jpg,right,7,right,1.78438687300149,1,Cond-3,3
2,Block3,Cond,stimuli/Smell/9.jpg,left,8,right,1.60049782500209,0,Cond-4,4
2,Block3,Fix2,stimuli/Soft/14.jpg,left,9,left,3.41570513500119,1,Fix2-3,3
2,Block3,Fix2,stimuli/Soft/34.jpg,left,10,left,0.768615932000102,1,Fix2-4,4
2,Block3,Fix1,stimuli/Sad/34.jpg,right,11,right,1.35571234999952,1,Fix1-4,4
2,Block3,Fix1,stimuli/Sad/47.jpg,right,12,right,1.45468833699852,1,Fix1-5,5
2,Block3,Fix2,stimuli/Soft/50.jpg,left,13,right,5.23783795700001,0,Fix2-5,5
2,Block3,Fix1,stimuli/Sad/46.jpg,right,14,left,1.38980543999787,0,Fix1-6,6
2,Block3,Fix2,stimuli/Soft/59.jpg,left,15,left,1.29193380699871,1,Fix2-6,6
2,Block3,Fix1,stimuli/Sad/14.jpg,right,16,right,2.03714742500233,1,Fix1-7,7
2,Block3,Fix1,stimuli/Sad/59.jpg,right,17,right,1.06967876699855,1,Fix1-8,8
2,Block3,Fix1,stimuli/Sad/44.jpg,right,18,right,0.805700126999,1,Fix1-9,9
2,Block3,Fix1,stimuli/Sad/45.jpg,right,19,right,3.02223931999833,1,Fix1-10,10
2,Block3,Cond,stimuli/Smell/52.jpg,left,20,right,1.06446933700136,0,Cond-5,5
2,Block3,Fix1,stimuli/Sad/20.jpg,right,21,right,0.998208439999871,1,Fix1-11,11
2,Block3,Fix2,stimuli/Soft/2.jpg,left,22,left,1.40733906999958,1,Fix2-7,7
2,Block3,Cond,stimuli/Smell/25.jpg,right,23,left,0.828232320000097,0,Cond-6,6
2,Block3,Cond,stimuli/Smell/54.jpg,left,24,left,0.90933354000299,1,Cond-7,7
2,Block3,Cond,stimuli/Smell/33.jpg,right,25,left,1.05017760999908,0,Cond-8,8
2,Block3,Fix1,stimuli/Sad/37.jpg,right,26,right,2.39935576300195,1,Fix1-12,12
2,Block3,Fix1,stimuli/Sad/5.jpg,right,27,right,0.678378160002467,1,Fix1-13,13
2,Block3,Fix1,stimuli/Sad/15.jpg,right,28,right,1.20612037499814,1,Fix1-14,14
2,Block3,Fix1,stimuli/Sad/51.jpg,right,29,right,0.999688967000111,1,Fix1-15,15
2,Block3,Fix1,stimuli/Sad/8.jpg,right,30,right,0.818242836998252,1,Fix1-16,16
2,Block3,Cond,stimuli/Smell/1.jpg,left,31,left,2.06030947500039,1,Cond-9,9
2,Block3,Fix2,stimuli/Soft/24.jpg,left,32,left,1.66630052699838,1,Fix2-8,8
2,Block3,Fix1,stimuli/Sad/23.jpg,right,33,right,0.749123287001566,1,Fix1-17,17
2,Block3,Fix2,stimuli/Soft/19.jpg,left,34,right,3.13668715200038,0,Fix2-9,9
2,Block3,Cond,stimuli/Smell/58.jpg,right,35,left,1.71040407499822,0,Cond-10,10
2,Block3,Fix2,stimuli/Soft/0.jpg,left,36,right,3.37280851800097,0,Fix2-10,10
2,Block3,Cond,stimuli/Smell/19.jpg,right,37,left,2.95050367300064,0,Cond-11,11
2,Block3,Cond,stimuli/Smell/7.jpg,left,38,left,5.55877635299839,1,Cond-12,12
2,Block3,Fix2,stimuli/Soft/58.jpg,left,39,left,0.84278609499961,1,Fix2-11,11
2,Block3,Fix2,stimuli/Soft/11.jpg,left,40,left,1.23998091199974,1,Fix2-12,12
2,Block3,Fix2,stimuli/Soft/41.jpg,left,41,left,0.856313625001349,1,Fix2-13,13
2,Block3,Cond,stimuli/Smell/8.jpg,right,42,right,1.35206429699974,1,Cond-13,13
2,Block3,Fix1,stimuli/Sad/36.jpg,right,43,right,1.2198561030018,1,Fix1-18,18
2,Block3,Cond,stimuli/Smell/22.jpg,left,44,left,1.29670620099932,1,Cond-14,14
2,Block3,Fix2,stimuli/Soft/29.jpg,left,45,right,1.09987568699944,0,Fix2-14,14
2,Block3,Cond,stimuli/Smell/57.jpg,right,46,left,0.804598433001956,0,Cond-15,15
2,Block3,Fix1,stimuli/Sad/57.jpg,right,47,right,1.01141435799946,1,Fix1-19,19
2,Block3,Fix2,stimuli/Soft/28.jpg,left,48,left,1.39010344499911,1,Fix2-15,15
2,Block3,Fix1,stimuli/Sad/54.jpg,right,49,right,1.15257577800003,1,Fix1-20,20
2,Block3,Cond,stimuli/Smell/51.jpg,left,50,right,1.67927272000088,0,Cond-16,16
2,Block3,Cond,stimuli/Smell/13.jpg,right,51,right,0.737179255000228,1,Cond-17,17
2,Block3,Fix2,stimuli/Soft/46.jpg,left,52,left,2.44371979700009,1,Fix2-16,16
2,Block3,Fix1,stimuli/Sad/22.jpg,right,53,right,0.738997710002877,1,Fix1-21,21
2,Block3,Fix1,stimuli/Sad/58.jpg,right,54,right,0.809377192999818,1,Fix1-22,22
2,Block3,Fix2,stimuli/Soft/40.jpg,left,55,left,1.28701673799878,1,Fix2-17,17
2,Block3,Cond,stimuli/Smell/41.jpg,right,56,right,1.6016598899987,1,Cond-18,18
2,Block3,Fix2,stimuli/Soft/21.jpg,left,57,left,1.10949584799891,1,Fix2-18,18
2,Block3,Fix1,stimuli/Sad/30.jpg,right,58,right,0.906393713998114,1,Fix1-23,23
2,Block3,Fix1,stimuli/Sad/4.jpg,right,59,right,1.46270957500019,1,Fix1-24,24
2,Block3,Cond,stimuli/Smell/42.jpg,left,60,left,1.8124206370012,1,Cond-19,19
2,Block3,Fix1,stimuli/Sad/38.jpg,right,61,right,0.755206279998674,1,Fix1-25,25
2,Block3,Fix1,stimuli/Sad/24.jpg,right,62,right,2.05189416999929,1,Fix1-26,26
2,Block3,Cond,stimuli/Smell/35.jpg,left,63,left,1.04559055999925,1,Cond-20,20
2,Block3,Fix2,stimuli/Soft/57.jpg,left,64,left,0.819017198002257,1,Fix2-19,19
2,Block3,Fix2,stimuli/Soft/7.jpg,left,65,left,1.10817708000104,1,Fix2-20,20
2,Block3,Cond,stimuli/Smell/31.jpg,right,66,right,0.766259678999631,1,Cond-21,21
2,Block3,Fix2,stimuli/Soft/53.jpg,left,67,left,1.38223414700042,1,Fix2-21,21
2,Block3,Fix2,stimuli/Soft/38.jpg,left,68,left,0.790193454999098,1,Fix2-22,22
2,Block3,Fix2,stimuli/Soft/5.jpg,left,69,left,0.994628720000037,1,Fix2-23,23
2,Block3,Fix2,stimuli/Soft/3.jpg,left,70,left,1.19700120199923,1,Fix2-24,24
2,Block3,Fix1,stimuli/Sad/3.jpg,right,71,right,0.921366250000574,1,Fix1-27,27
2,Block3,Fix1,stimuli/Sad/2.jpg,right,72,right,0.622449312002573,1,Fix1-28,28
2,Block3,Fix1,stimuli/Sad/19.jpg,right,73,right,0.74373295499754,1,Fix1-29,29
2,Block3,Fix2,stimuli/Soft/37.jpg,left,74,left,1.99005260299964,1,Fix2-25,25
2,Block3,Fix2,stimuli/Soft/52.jpg,left,75,left,0.914566110001033,1,Fix2-26,26
2,Block3,Cond,stimuli/Smell/44.jpg,right,76,left,0.878277037001681,0,Cond-22,22
2,Block3,Fix2,stimuli/Soft/17.jpg,left,77,right,0.96978979999767,0,Fix2-27,27
2,Block3,Cond,stimuli/Smell/3.jpg,right,78,left,1.18833306499801,0,Cond-23,23
2,Block3,Fix1,stimuli/Sad/50.jpg,right,79,right,0.627484096999979,1,Fix1-30,30
2,Block3,Fix2,stimuli/Soft/33.jpg,left,80,left,1.58724671500022,1,Fix2-28,28
2,Block3,Fix2,stimuli/Soft/36.jpg,left,81,left,5.0210773530016,1,Fix2-29,29
2,Block3,Fix2,stimuli/Soft/6.jpg,left,82,left,1.32341064999855,1,Fix2-30,30
2,Block3,Fix1,stimuli/Sad/10.jpg,right,83,right,0.695391105000454,1,Fix1-31,31
2,Block3,Cond,stimuli/Smell/38.jpg,left,84,right,2.02679104499839,0,Cond-24,24
2,Block3,Fix1,stimuli/Sad/7.jpg,right,85,right,0.612678238001536,1,Fix1-32,32
2,Block3,Fix1,stimuli/Sad/6.jpg,right,86,right,0.949927146997652,1,Fix1-33,33
2,Block3,Cond,stimuli/Smell/12.jpg,left,87,left,0.920201779998024,1,Cond-25,25
2,Block3,Cond,stimuli/Smell/45.jpg,right,88,left,1.34695847500188,0,Cond-26,26
2,Block3,Fix2,stimuli/Soft/16.jpg,left,89,left,0.721843000002991,1,Fix2-31,31
2,Block3,Fix1,stimuli/Sad/25.jpg,right,90,right,2.59990380300223,1,Fix1-34,34
2,Block3,Fix2,stimuli/Soft/22.jpg,left,91,left,1.29832763000013,1,Fix2-32,32
2,Block3,Fix1,stimuli/Sad/31.jpg,right,92,right,1.53162316000089,1,Fix1-35,35
2,Block3,Fix2,stimuli/Soft/48.jpg,left,93,left,0.990481042001193,1,Fix2-33,33
2,Block3,Cond,stimuli/Smell/47.jpg,right,94,left,1.54285301999698,0,Cond-27,27
2,Block3,Cond,stimuli/Smell/23.jpg,left,95,left,1.00341638499958,1,Cond-28,28
2,Block3,Fix1,stimuli/Sad/52.jpg,right,96,right,1.49011951099965,1,Fix1-36,36
2,Block3,Fix1,stimuli/Sad/48.jpg,right,97,right,0.669542550000187,1,Fix1-37,37
2,Block3,Fix2,stimuli/Soft/13.jpg,left,98,left,0.982810829998925,1,Fix2-34,34
2,Block3,Cond,stimuli/Smell/16.jpg,right,99,left,1.00680451500011,0,Cond-29,29
2,Block3,Fix2,stimuli/Soft/18.jpg,left,100,left,1.11241250199964,1,Fix2-35,35
2,Block3,Fix1,stimuli/Sad/12.jpg,right,101,right,0.643302562999452,1,Fix1-38,38
2,Block3,Cond,stimuli/Smell/55.jpg,left,102,left,1.543774157999,1,Cond-30,30
2,Block3,Cond,stimuli/Smell/0.jpg,right,103,right,1.21534921800048,1,Cond-31,31
2,Block3,Fix2,stimuli/Soft/44.jpg,left,104,right,1.19801924000058,0,Fix2-36,36
2,Block3,Fix2,stimuli/Soft/26.jpg,left,105,right,0.843306856997515,0,Fix2-37,37
2,Block3,Cond,stimuli/Smell/24.jpg,right,106,left,1.48975820500345,0,Cond-32,32
2,Block3,Cond,stimuli/Smell/18.jpg,left,107,left,1.3440527849998,1,Cond-33,33
2,Block3,Fix2,stimuli/Soft/56.jpg,left,108,right,1.06714358299723,0,Fix2-38,38
2,Block3,Cond,stimuli/Smell/56.jpg,right,109,left,3.25381514499895,0,Cond-34,34
2,Block3,Fix1,stimuli/Sad/13.jpg,right,110,right,0.820176130000618,1,Fix1-39,39
2,Block3,Fix1,stimuli/Sad/39.jpg,right,111,right,1.21824831200138,1,Fix1-40,40
2,Block3,Fix2,stimuli/Soft/9.jpg,left,112,left,1.78162593000161,1,Fix2-39,39
2,Block3,Cond,stimuli/Smell/53.jpg,right,113,left,1.48919739000121,0,Cond-35,35
2,Block3,Fix2,stimuli/Soft/10.jpg,left,114,right,0.964586674999737,0,Fix2-40,40
2,Block3,Cond,stimuli/Smell/26.jpg,right,115,left,1.38513295500161,0,Cond-36,36
2,Block3,Fix2,stimuli/Soft/43.jpg,left,116,left,3.22113887300293,1,Fix2-41,41
2,Block3,Fix2,stimuli/Soft/25.jpg,left,117,right,1.60269251499994,0,Fix2-42,42
2,Block3,Fix2,stimuli/Soft/42.jpg,left,118,left,2.86625139000171,1,Fix2-43,43
2,Block3,Fix1,stimuli/Sad/42.jpg,right,119,right,2.00047092299792,1,Fix1-41,41
2,Block3,Fix1,stimuli/Sad/28.jpg,right,120,right,1.12559825800054,1,Fix1-42,42
2,Block3,Cond,stimuli/Smell/21.jpg,left,121,left,1.01355501999933,1,Cond-37,37
2,Block3,Cond,stimuli/Smell/49.jpg,right,122,right,1.54292513700057,1,Cond-38,38
2,Block3,Fix2,stimuli/Soft/47.jpg,left,123,left,2.63046072500219,1,Fix2-44,44
2,Block3,Cond,stimuli/Smell/2.jpg,right,124,right,1.25241657000151,1,Cond-39,39
2,Block3,Fix1,stimuli/Sad/40.jpg,right,125,right,0.999881945001107,1,Fix1-43,43
2,Block3,Fix2,stimuli/Soft/35.jpg,left,126,left,0.958849975002522,1,Fix2-45,45
2,Block3,Cond,stimuli/Smell/37.jpg,right,127,left,1.17238960699979,0,Cond-40,40
2,Block3,Fix1,stimuli/Sad/29.jpg,right,128,right,1.07768856999974,1,Fix1-44,44
2,Block3,Cond,stimuli/Smell/20.jpg,left,129,left,2.73039907299972,1,Cond-41,41
2,Block3,Cond,stimuli/Smell/46.jpg,right,130,right,1.22099533499932,1,Cond-42,42
2,Block3,Fix1,stimuli/Sad/17.jpg,right,131,right,0.678312629999709,1,Fix1-45,45
2,Block3,Fix2,stimuli/Soft/15.jpg,left,132,left,0.956388959999458,1,Fix2-46,46
2,Block3,Fix1,stimuli/Sad/41.jpg,right,133,left,3.17276440299975,0,Fix1-46,46
2,Block3,Fix2,stimuli/Soft/32.jpg,left,134,left,1.18294641500324,1,Fix2-47,47
2,Block3,Cond,stimuli/Smell/27.jpg,right,135,right,1.02116085700254,1,Cond-43,43
2,Block3,Fix2,stimuli/Soft/55.jpg,left,136,left,3.16978971800199,1,Fix2-48,48
2,Block3,Fix2,stimuli/Soft/31.jpg,left,137,left,1.70202898999923,1,Fix2-49,49
2,Block3,Cond,stimuli/Smell/50.jpg,right,138,left,2.14743267999802,0,Cond-44,44
2,Block3,Fix2,stimuli/Soft/12.jpg,left,139,left,1.08872818500095,1,Fix2-50,50
2,Block3,Cond,stimuli/Smell/6.jpg,right,140,right,2.47516258299947,1,Cond-45,45
2,Block3,Cond,stimuli/Smell/43.jpg,left,141,right,1.28481895299774,0,Cond-46,46
2,Block3,Fix1,stimuli/Sad/33.jpg,right,142,right,0.882612352997967,1,Fix1-47,47
2,Block3,Fix1,stimuli/Sad/35.jpg,right,143,right,0.755696822998289,1,Fix1-48,48
2,Block3,Fix1,stimuli/Sad/53.jpg,right,144,right,0.603352783000446,1,Fix1-49,49
2,Block3,Cond,stimuli/Smell/30.jpg,left,145,right,1.08919199699812,0,Cond-47,47
2,Block3,Fix1,stimuli/Sad/27.jpg,right,146,right,1.04998374000206,1,Fix1-50,50
2,Block3,Cond,stimuli/Smell/40.jpg,left,147,left,1.04992789199969,1,Cond-48,48
2,Block3,Cond,stimuli/Smell/28.jpg,right,148,left,1.38070891000098,0,Cond-49,49
2,Block3,Cond,stimuli/Smell/36.jpg,left,149,left,0.962642073001916,1,Cond-50,50
3,Block1,Fix2,stimuli/Dangerous/15.jpg,right,0,right,4.37330245299995,1,Fix2-1,1
3,Block1,Fix1,stimuli/School/26.jpg,left,1,left,11.301349004,1,Fix1-1,1
3,Block1,Cond,stimuli/Small/10.jpg,right,2,left,5.44685856199999,0,Cond-1,1
3,Block1,Fix1,stimuli/School/25.jpg,left,3,right,2.74894170200014,0,Fix1-2,2
3,Block1,Fix2,stimuli/Dangerous/30.jpg,right,4,right,3.30962351599987,1,Fix2-2,2
3,Block1,Fix2,stimuli/Dangerous/42.jpg,right,5,right,11.4894180469998,1,Fix2-3,3
3,Block1,Cond,stimuli/Small/4.jpg,left,6,left,6.40139174599994,1,Cond-2,2
3,Block1,Fix2,stimuli/Dangerous/44.jpg,right,7,right,2.95316592299991,1,Fix2-4,4
3,Block1,Cond,stimuli/Small/39.jpg,left,8,left,4.35466425000004,1,Cond-3,3
3,Block1,Fix2,stimuli/Dangerous/34.jpg,right,9,right,3.12287458900005,1,Fix2-5,5
3,Block1,Cond,stimuli/Small/13.jpg,left,10,right,5.43482270000004,0,Cond-4,4
3,Block1,Fix2,stimuli/Dangerous/6.jpg,right,11,right,3.30895322699985,1,Fix2-6,6
3,Block1,Fix2,stimuli/Dangerous/24.jpg,right,12,right,6.26200256899983,1,Fix2-7,7
3,Block1,Cond,stimuli/Small/20.jpg,left,13,left,2.60639835699999,1,Cond-5,5
3,Block1,Fix2,stimuli/Dangerous/33.jpg,right,14,right,2.27133532200014,1,Fix2-8,8
3,Block1,Cond,stimuli/Small/2.jpg,left,15,left,2.25516589199992,1,Cond-6,6
3,Block1,Fix2,stimuli/Dangerous/41.jpg,right,16,right,2.01722178099999,1,Fix2-9,9
3,Block1,Fix1,stimuli/School/56.jpg,left,17,left,2.4077165010001,1,Fix1-3,3
3,Block1,Cond,stimuli/Small/57.jpg,right,18,left,9.41977102700002,0,Cond-7,7
3,Block1,Fix2,stimuli/Dangerous/58.jpg,right,19,right,4.04088773500007,1,Fix2-10,10
3,Block1,Cond,stimuli/Small/58.jpg,left,20,right,7.26612002399997,0,Cond-8,8
3,Block1,Fix2,stimuli/Dangerous/20.jpg,right,21,right,2.31616796100002,1,Fix2-11,11
3,Block1,Cond,stimuli/Small/29.jpg,left,22,left,5.16929137200009,1,Cond-9,9
3,Block1,Fix2,stimuli/Dangerous/46.jpg,right,23,right,2.63223953200009,1,Fix2-12,12
3,Block1,Fix1,stimuli/School/10.jpg,left,24,left,2.724320519,1,Fix1-4,4
3,Block1,Fix1,stimuli/School/50.jpg,left,25,right,12.017879708,0,Fix1-5,5
3,Block1,Cond,stimuli/Small/19.jpg,right,26,left,4.28124415100001,0,Cond-10,10
3,Block1,Fix1,stimuli/School/28.jpg,left,27,left,2.45217619800019,1,Fix1-6,6
3,Block1,Fix1,stimuli/School/35.jpg,left,28,right,2.646578654,0,Fix1-7,7
3,Block1,Fix1,stimuli/School/39.jpg,left,29,left,4.86765699700004,1,Fix1-8,8
3,Block1,Cond,stimuli/Small/42.jpg,right,30,right,2.45095959399987,1,Cond-11,11
3,Block1,Fix2,stimuli/Dangerous/31.jpg,right,31,right,2.13357521999978,1,Fix2-13,13
3,Block1,Cond,stimuli/Small/25.jpg,left,32,left,12.646380183,1,Cond-12,12
3,Block1,Cond,stimuli/Small/9.jpg,right,33,right,3.26286474299991,1,Cond-13,13
3,Block1,Fix1,stimuli/School/9.jpg,left,34,left,3.39403892699988,1,Fix1-9,9
3,Block1,Fix1,stimuli/School/23.jpg,left,35,left,2.49460573199985,1,Fix1-10,10
3,Block1,Fix1,stimuli/School/54.jpg,left,36,right,2.62639568999998,0,Fix1-11,11
3,Block1,Cond,stimuli/Small/43.jpg,right,37,left,2.69633788700003,0,Cond-14,14
3,Block1,Fix2,stimuli/Dangerous/22.jpg,right,38,right,5.69761560300003,1,Fix2-14,14
3,Block1,Fix2,stimuli/Dangerous/43.jpg,right,39,right,6.36522138300006,1,Fix2-15,15
3,Block1,Cond,stimuli/Small/36.jpg,left,40,left,2.84142850600006,1,Cond-15,15
3,Block1,Fix2,stimuli/Dangerous/38.jpg,right,41,right,2.81023054000002,1,Fix2-16,16
3,Block1,Fix1,stimuli/School/18.jpg,left,42,left,2.79800284399994,1,Fix1-12,12
3,Block1,Fix1,stimuli/School/36.jpg,left,43,left,2.8965488450001,1,Fix1-13,13
3,Block1,Fix1,stimuli/School/48.jpg,left,44,right,3.14029253100011,0,Fix1-14,14
3,Block1,Fix1,stimuli/School/42.jpg,left,45,left,2.42878263800003,1,Fix1-15,15
3,Block1,Cond,stimuli/Small/23.jpg,right,46,right,3.19385273699982,1,Cond-16,16
3,Block1,Cond,stimuli/Small/38.jpg,left,47,left,2.69769101500015,1,Cond-17,17
3,Block1,Cond,stimuli/Small/55.jpg,right,48,left,4.03615093999997,0,Cond-18,18
3,Block1,Cond,stimuli/Small/1.jpg,left,49,left,2.5017490969999,1,Cond-19,19
3,Block1,Fix1,stimuli/School/6.jpg,left,50,left,1.96870118000015,1,Fix1-16,16
3,Block1,Fix2,stimuli/Dangerous/18.jpg,right,51,right,1.92103840599998,1,Fix2-17,17
3,Block1,Fix1,stimuli/School/1.jpg,left,52,left,2.40681116199994,1,Fix1-17,17
3,Block1,Cond,stimuli/Small/33.jpg,right,53,right,2.18264561699993,1,Cond-20,20
3,Block1,Cond,stimuli/Small/12.jpg,left,54,left,2.22877645500012,1,Cond-21,21
3,Block1,Cond,stimuli/Small/17.jpg,right,55,left,2.40681566800004,0,Cond-22,22
3,Block1,Fix1,stimuli/School/17.jpg,left,56,left,3.12453297599995,1,Fix1-18,18
3,Block1,Cond,stimuli/Small/11.jpg,right,57,right,2.28950671200005,1,Cond-23,23
3,Block1,Fix1,stimuli/School/33.jpg,left,58,right,5.77656989899992,0,Fix1-19,19
3,Block1,Cond,stimuli/Small/18.jpg,right,59,left,6.0787844240001,0,Cond-24,24
3,Block1,Fix2,stimuli/Dangerous/61.jpg,right,60,right,2.05556063900008,1,Fix2-18,18
3,Block1,Fix2,stimuli/Dangerous/32.jpg,right,61,right,1.97967632100017,1,Fix2-19,19
3,Block1,Fix2,stimuli/Dangerous/28.jpg,right,62,right,2.03100501099993,1,Fix2-20,20
3,Block1,Cond,stimuli/Small/16.jpg,left,63,left,3.99053957599995,1,Cond-25,25
3,Block1,Cond,stimuli/Small/14.jpg,right,64,right,1.84208708599999,1,Cond-26,26
3,Block1,Fix2,stimuli/Dangerous/35.jpg,right,65,right,1.92967292100002,1,Fix2-21,21
3,Block1,Fix2,stimuli/Dangerous/3.jpg,right,66,right,2.17915551900001,1,Fix2-22,22
3,Block1,Cond,stimuli/Small/45.jpg,left,67,left,1.74018142099999,1,Cond-27,27
3,Block1,Fix2,stimuli/Dangerous/10.jpg,right,68,right,1.56719966399987,1,Fix2-23,23
3,Block1,Fix2,stimuli/Dangerous/9.jpg,right,69,right,0.956864068999948,1,Fix2-24,24
3,Block1,Cond,stimuli/Small/31.jpg,left,70,left,1.85663251999995,1,Cond-28,28
3,Block1,Fix1,stimuli/School/19.jpg,left,71,right,14.6913842199999,0,Fix1-20,20
3,Block1,Fix1,stimuli/School/11.jpg,left,72,left,2.84681011900011,1,Fix1-21,21
3,Block1,Fix1,stimuli/School/31.jpg,left,73,left,2.02824119500019,1,Fix1-22,22
3,Block1,Fix1,stimuli/School/21.jpg,left,74,right,6.00119434199996,0,Fix1-23,23
3,Block1,Fix1,stimuli/School/55.jpg,left,75,left,2.4603580559999,1,Fix1-24,24
3,Block1,Cond,stimuli/Small/32.jpg,right,76,right,5.73481484900003,1,Cond-29,29
3,Block1,Fix2,stimuli/Dangerous/48.jpg,right,77,right,2.89697766899985,1,Fix2-25,25
3,Block1,Cond,stimuli/Small/5.jpg,left,78,left,3.09235207899997,1,Cond-30,30
3,Block1,Fix1,stimuli/School/37.jpg,left,79,left,2.39045365199991,1,Fix1-25,25
3,Block1,Fix1,stimuli/School/27.jpg,left,80,left,3.42089053900008,1,Fix1-26,26
3,Block1,Cond,stimuli/Small/28.jpg,right,81,right,12.1146581760001,1,Cond-31,31
3,Block1,Cond,stimuli/Small/30.jpg,left,82,right,4.15652286099998,0,Cond-32,32
3,Block1,Fix1,stimuli/School/59.jpg,left,83,left,2.88541762399996,1,Fix1-27,27
3,Block1,Fix2,stimuli/Dangerous/7.jpg,right,84,right,3.34436354200011,1,Fix2-26,26
3,Block1,Cond,stimuli/Small/37.jpg,left,85,right,4.39463060100002,0,Cond-33,33
3,Block1,Fix1,stimuli/School/13.jpg,left,86,left,2.602033914,1,Fix1-28,28
3,Block1,Fix2,stimuli/Dangerous/14.jpg,right,87,right,3.90958019200002,1,Fix2-27,27
3,Block1,Cond,stimuli/Small/50.jpg,left,88,right,10.2523687559999,0,Cond-34,34
3,Block1,Fix2,stimuli/Dangerous/63.jpg,right,89,right,2.36698348899995,1,Fix2-28,28
3,Block1,Fix2,stimuli/Dangerous/0.jpg,right,90,right,2.31167855600006,1,Fix2-29,29
3,Block1,Fix1,stimuli/School/32.jpg,left,91,left,2.7385961980001,1,Fix1-29,29
3,Block1,Fix1,stimuli/School/29.jpg,left,92,left,4.31174000099986,1,Fix1-30,30
3,Block1,Cond,stimuli/Small/7.jpg,right,93,right,2.47527449200015,1,Cond-35,35
3,Block1,Fix2,stimuli/Dangerous/19.jpg,right,94,right,3.73016402199983,1,Fix2-30,30
3,Block1,Cond,stimuli/Small/51.jpg,left,95,left,2.0596206690002,1,Cond-36,36
3,Block1,Fix2,stimuli/Dangerous/4.jpg,right,96,right,6.11636735299999,1,Fix2-31,31
3,Block1,Cond,stimuli/Small/24.jpg,left,97,left,2.28525399099999,1,Cond-37,37
3,Block1,Fix1,stimuli/School/58.jpg,left,98,left,2.40155810800002,1,Fix1-31,31
3,Block1,Cond,stimuli/Small/35.jpg,right,99,left,3.07823763700003,0,Cond-38,38
3,Block1,Cond,stimuli/Small/40.jpg,left,100,left,2.65677230799997,1,Cond-39,39
3,Block1,Cond,stimuli/Small/3.jpg,right,101,left,1.92823784300003,0,Cond-40,40
3,Block1,Fix1,stimuli/School/38.jpg,left,102,right,33.772335909,0,Fix1-32,32
3,Block1,Fix2,stimuli/Dangerous/26.jpg,right,103,right,6.29037076899999,1,Fix2-32,32
3,Block1,Fix1,stimuli/School/51.jpg,left,104,left,5.58846429000005,1,Fix1-33,33
3,Block1,Cond,stimuli/Small/56.jpg,right,105,left,2.9282037559999,0,Cond-41,41
3,Block1,Cond,stimuli/Small/44.jpg,left,106,right,4.40408640999999,0,Cond-42,42
3,Block1,Fix2,stimuli/Dangerous/36.jpg,right,107,right,2.87484993499993,1,Fix2-33,33
3,Block1,Cond,stimuli/Small/54.jpg,left,108,left,3.55672765100007,1,Cond-43,43
3,Block1,Fix1,stimuli/School/0.jpg,left,109,right,3.24932861000002,0,Fix1-34,34
3,Block1,Fix1,stimuli/School/57.jpg,left,110,right,2.45719063599995,0,Fix1-35,35
3,Block1,Fix1,stimuli/School/24.jpg,left,111,left,4.33993579200001,1,Fix1-36,36
3,Block1,Fix2,stimuli/Dangerous/45.jpg,right,112,right,2.06368621399997,1,Fix2-34,34
3,Block1,Fix2,stimuli/Dangerous/40.jpg,right,113,right,2.41740749099995,1,Fix2-35,35
3,Block1,Fix2,stimuli/Dangerous/39.jpg,right,114,right,2.47120922400018,1,Fix2-36,36
3,Block1,Cond,stimuli/Small/59.jpg,left,115,left,4.50925404999998,1,Cond-44,44
3,Block1,Fix2,stimuli/Dangerous/21.jpg,right,116,right,2.56539324200003,1,Fix2-37,37
3,Block1,Fix1,stimuli/School/15.jpg,left,117,left,4.05081352599996,1,Fix1-37,37
3,Block1,Fix1,stimuli/School/5.jpg,left,118,left,2.9254092499998,1,Fix1-38,38
3,Block1,Fix1,stimuli/School/46.jpg,left,119,right,2.73928114700016,0,Fix1-39,39
3,Block1,Fix1,stimuli/School/4.jpg,left,120,left,2.53704060999985,1,Fix1-40,40
3,Block1,Fix2,stimuli/Dangerous/8.jpg,right,121,right,2.09433984600014,1,Fix2-38,38
3,Block1,Fix2,stimuli/Dangerous/17.jpg,right,122,right,2.7281784920001,1,Fix2-39,39
3,Block1,Fix2,stimuli/Dangerous/1.jpg,right,123,right,4.75100365199978,1,Fix2-40,40
3,Block1,Fix1,stimuli/School/3.jpg,left,124,left,4.33594905100017,1,Fix1-41,41
3,Block1,Fix2,stimuli/Dangerous/37.jpg,right,125,right,2.32077410600004,1,Fix2-41,41
3,Block1,Fix1,stimuli/School/22.jpg,left,126,right,5.2249150319999,0,Fix1-42,42
3,Block1,Fix2,stimuli/Dangerous/51.jpg,right,127,right,2.27189068199959,1,Fix2-42,42
3,Block1,Cond,stimuli/Small/6.jpg,left,128,left,6.39999230300009,1,Cond-45,45
3,Block1,Fix1,stimuli/School/12.jpg,left,129,left,2.61081719399999,1,Fix1-43,43
3,Block1,Fix2,stimuli/Dangerous/13.jpg,right,130,right,2.63557341800015,1,Fix2-43,43
3,Block1,Fix1,stimuli/School/49.jpg,left,131,left,2.9411255330001,1,Fix1-44,44
3,Block1,Fix2,stimuli/Dangerous/2.jpg,right,132,right,2.38674249299993,1,Fix2-44,44
3,Block1,Cond,stimuli/Small/52.jpg,left,133,left,2.93606863200012,1,Cond-46,46
3,Block1,Cond,stimuli/Small/27.jpg,right,134,left,10.4712232480001,0,Cond-47,47
3,Block1,Fix1,stimuli/School/41.jpg,left,135,left,2.30982172699987,1,Fix1-45,45
3,Block1,Fix1,stimuli/School/40.jpg,left,136,left,2.0946985139999,1,Fix1-46,46
3,Block1,Fix2,stimuli/Dangerous/57.jpg,right,137,right,1.98970883699985,1,Fix2-45,45
3,Block1,Cond,stimuli/Small/21.jpg,left,138,left,4.29294399299988,1,Cond-48,48
3,Block1,Cond,stimuli/Small/48.jpg,right,139,left,2.45998619300008,0,Cond-49,49
3,Block1,Fix2,stimuli/Dangerous/12.jpg,right,140,right,3.70774458599999,1,Fix2-46,46
3,Block1,Fix1,stimuli/School/2.jpg,left,141,left,2.63561358700008,1,Fix1-47,47
3,Block1,Fix1,stimuli/School/16.jpg,left,142,right,3.24882171299987,0,Fix1-48,48
3,Block1,Fix2,stimuli/Dangerous/23.jpg,right,143,right,2.55548249999993,1,Fix2-47,47
3,Block1,Fix2,stimuli/Dangerous/5.jpg,right,144,right,2.39771302600002,1,Fix2-48,48
3,Block1,Fix2,stimuli/Dangerous/56.jpg,right,145,right,1.83696859300017,1,Fix2-49,49
3,Block1,Cond,stimuli/Small/22.jpg,left,146,left,2.73250446700013,1,Cond-50,50
3,Block1,Fix1,stimuli/School/7.jpg,left,147,left,5.46207715700029,1,Fix1-49,49
3,Block1,Fix1,stimuli/School/43.jpg,left,148,right,8.15437245099974,0,Fix1-50,50
3,Block1,Fix2,stimuli/Dangerous/27.jpg,right,149,right,2.39343485999962,1,Fix2-50,50
3,Block2,Fix2,stimuli/Healthy/38.jpg,left,0,left,7.24917470799983,1,Fix2-1,1
3,Block2,Fix1,stimuli/Old/36.jpg,right,1,right,2.66301950999969,1,Fix1-1,1
3,Block2,Cond,stimuli/Wealth/56.jpg,left,2,right,4.29463667499977,0,Cond-1,1
3,Block2,Fix1,stimuli/Old/58.jpg,right,3,right,2.8241543449999,1,Fix1-2,2
3,Block2,Fix2,stimuli/Healthy/67.jpg,left,4,left,2.71480154400024,1,Fix2-2,2
3,Block2,Fix1,stimuli/Old/40.jpg,right,5,left,3.08016478599984,0,Fix1-3,3
3,Block2,Fix1,stimuli/Old/55.jpg,right,6,left,3.89818939399993,0,Fix1-4,4
3,Block2,Fix2,stimuli/Healthy/37.jpg,left,7,left,3.52299471199967,1,Fix2-3,3
3,Block2,Fix2,stimuli/Healthy/13.jpg,left,8,left,4.44603159100006,1,Fix2-4,4
3,Block2,Fix2,stimuli/Healthy/10.jpg,left,9,left,2.83306525700027,1,Fix2-5,5
3,Block2,Cond,stimuli/Wealth/5.jpg,right,10,left,15.1378104130004,0,Cond-2,2
3,Block2,Fix2,stimuli/Healthy/1.jpg,left,11,right,2.87276141599978,0,Fix2-6,6
3,Block2,Fix1,stimuli/Old/20.jpg,right,12,right,2.58266623899999,1,Fix1-5,5
3,Block2,Fix2,stimuli/Healthy/4.jpg,left,13,left,3.4983516960001,1,Fix2-7,7
3,Block2,Cond,stimuli/Wealth/41.jpg,right,14,right,14.1630430690002,1,Cond-3,3
3,Block2,Cond,stimuli/Wealth/57.jpg,left,15,left,3.04497338100009,1,Cond-4,4
3,Block2,Fix2,stimuli/Healthy/58.jpg,left,16,left,3.45246409200035,1,Fix2-8,8
3,Block2,Fix1,stimuli/Old/49.jpg,right,17,right,2.35611901300035,1,Fix1-6,6
3,Block2,Fix1,stimuli/Old/29.jpg,right,18,right,2.4763581860002,1,Fix1-7,7
3,Block2,Cond,stimuli/Wealth/26.jpg,left,19,left,2.8527932930001,1,Cond-5,5
3,Block2,Fix1,stimuli/Old/37.jpg,right,20,right,2.09736203900002,1,Fix1-8,8
3,Block2,Fix2,stimuli/Healthy/42.jpg,left,21,left,2.32240518400022,1,Fix2-9,9
3,Block2,Fix2,stimuli/Healthy/55.jpg,left,22,left,2.22694908999983,1,Fix2-10,10
3,Block2,Fix1,stimuli/Old/15.jpg,right,23,right,2.21469559100024,1,Fix1-9,9
3,Block2,Fix2,stimuli/Healthy/8.jpg,left,24,left,2.08967209800039,1,Fix2-11,11
3,Block2,Cond,stimuli/Wealth/17.jpg,right,25,left,3.30012060000035,0,Cond-6,6
3,Block2,Cond,stimuli/Wealth/27.jpg,left,26,right,2.18189479800003,0,Cond-7,7
3,Block2,Cond,stimuli/Wealth/0.jpg,right,27,left,6.86367916200015,0,Cond-8,8
3,Block2,Fix2,stimuli/Healthy/5.jpg,left,28,left,2.29812875800008,1,Fix2-12,12
3,Block2,Fix2,stimuli/Healthy/29.jpg,left,29,left,1.78121209299979,1,Fix2-13,13
3,Block2,Cond,stimuli/Wealth/53.jpg,right,30,right,2.74694351399967,1,Cond-9,9
3,Block2,Fix1,stimuli/Old/2.jpg,right,31,right,2.30304487700005,1,Fix1-10,10
3,Block2,Fix2,stimuli/Healthy/7.jpg,left,32,left,2.26565468499984,1,Fix2-14,14
3,Block2,Fix1,stimuli/Old/7.jpg,right,33,right,2.33327713000017,1,Fix1-11,11
3,Block2,Cond,stimuli/Wealth/10.jpg,left,34,right,3.7093399119999,0,Cond-10,10
3,Block2,Fix2,stimuli/Healthy/68.jpg,left,35,left,2.37256064400026,1,Fix2-15,15
3,Block2,Cond,stimuli/Wealth/24.jpg,right,36,left,2.04044844999999,0,Cond-11,11
3,Block2,Cond,stimuli/Wealth/12.jpg,left,37,left,4.10479489699992,1,Cond-12,12
3,Block2,Fix2,stimuli/Healthy/20.jpg,left,38,left,7.85755151000012,1,Fix2-16,16
3,Block2,Fix2,stimuli/Healthy/44.jpg,left,39,left,2.79981769100004,1,Fix2-17,17
3,Block2,Fix2,stimuli/Healthy/27.jpg,left,40,left,2.56924907199982,1,Fix2-18,18
3,Block2,Fix2,stimuli/Healthy/59.jpg,left,41,left,3.92842839400009,1,Fix2-19,19
3,Block2,Fix1,stimuli/Old/46.jpg,right,42,right,5.48413937900023,1,Fix1-12,12
3,Block2,Fix2,stimuli/Healthy/39.jpg,left,43,left,2.10306457300021,1,Fix2-20,20
3,Block2,Fix1,stimuli/Old/38.jpg,right,44,right,2.92313002299989,1,Fix1-13,13
3,Block2,Fix2,stimuli/Healthy/66.jpg,left,45,left,2.42576238400034,1,Fix2-21,21
3,Block2,Fix1,stimuli/Old/17.jpg,right,46,right,2.31360590099985,1,Fix1-14,14
3,Block2,Fix1,stimuli/Old/14.jpg,right,47,right,3.04529109699979,1,Fix1-15,15
3,Block2,Cond,stimuli/Wealth/43.jpg,left,48,left,7.18464286399967,1,Cond-13,13
3,Block2,Fix2,stimuli/Healthy/41.jpg,left,49,right,6.16245864799976,0,Fix2-22,22
3,Block2,Cond,stimuli/Wealth/40.jpg,right,50,right,2.56072802800009,1,Cond-14,14
3,Block2,Fix1,stimuli/Old/43.jpg,right,51,right,2.72038070300005,1,Fix1-16,16
3,Block2,Cond,stimuli/Wealth/44.jpg,left,52,right,7.13476546599986,0,Cond-15,15
3,Block2,Fix1,stimuli/Old/10.jpg,right,53,right,7.22717271900001,1,Fix1-17,17
3,Block2,Fix1,stimuli/Old/3.jpg,right,54,left,3.61680891800006,0,Fix1-18,18
3,Block2,Cond,stimuli/Wealth/13.jpg,left,55,right,5.38928262600029,0,Cond-16,16
3,Block2,Cond,stimuli/Wealth/14.jpg,right,56,left,2.33844749899981,0,Cond-17,17
3,Block2,Fix2,stimuli/Healthy/65.jpg,left,57,left,12.8286642820003,1,Fix2-23,23
3,Block2,Cond,stimuli/Wealth/45.jpg,right,58,left,12.0662614810003,0,Cond-18,18
3,Block2,Cond,stimuli/Wealth/31.jpg,left,59,right,52.6462645940001,0,Cond-19,19
3,Block2,Cond,stimuli/Wealth/46.jpg,right,60,right,8.92571752200001,1,Cond-20,20
3,Block2,Cond,stimuli/Wealth/52.jpg,left,61,left,3.38336529200024,1,Cond-21,21
3,Block2,Fix2,stimuli/Healthy/51.jpg,left,62,left,11.7267972139998,1,Fix2-24,24
3,Block2,Fix2,stimuli/Healthy/32.jpg,left,63,left,2.50380896999968,1,Fix2-25,25
3,Block2,Fix2,stimuli/Healthy/45.jpg,left,64,left,3.56619752100005,1,Fix2-26,26
3,Block2,Cond,stimuli/Wealth/19.jpg,right,65,left,4.73144679899997,0,Cond-22,22
3,Block2,Fix1,stimuli/Old/8.jpg,right,66,right,14.7267122040003,1,Fix1-19,19
3,Block2,Cond,stimuli/Wealth/22.jpg,left,67,right,6.26460645099996,0,Cond-23,23
3,Block2,Cond,stimuli/Wealth/11.jpg,right,68,left,8.31880331799994,0,Cond-24,24
3,Block2,Fix2,stimuli/Healthy/43.jpg,left,69,left,3.28799491200016,1,Fix2-27,27
3,Block2,Fix2,stimuli/Healthy/6.jpg,left,70,left,2.85255856399999,1,Fix2-28,28
3,Block2,Fix1,stimuli/Old/21.jpg,right,71,right,2.99645524100015,1,Fix1-20,20
3,Block2,Fix2,stimuli/Healthy/9.jpg,left,72,left,4.18935888500027,1,Fix2-29,29
3,Block2,Cond,stimuli/Wealth/51.jpg,right,73,left,2.79439181299995,0,Cond-25,25
3,Block2,Fix1,stimuli/Old/54.jpg,right,74,right,27.5674130100001,1,Fix1-21,21
3,Block2,Fix2,stimuli/Healthy/53.jpg,left,75,left,3.27202026799978,1,Fix2-30,30
3,Block2,Cond,stimuli/Wealth/49.jpg,right,76,left,8.5368824369998,0,Cond-26,26
3,Block2,Fix1,stimuli/Old/0.jpg,right,77,right,3.76367661999984,1,Fix1-22,22
3,Block2,Cond,stimuli/Wealth/28.jpg,left,78,left,11.5193310209997,1,Cond-27,27
3,Block2,Cond,stimuli/Wealth/20.jpg,right,79,right,7.10773613599986,1,Cond-28,28
3,Block2,Fix1,stimuli/Old/47.jpg,right,80,right,4.20303663999994,1,Fix1-23,23
3,Block2,Cond,stimuli/Wealth/55.jpg,left,81,left,5.4918204810001,1,Cond-29,29
3,Block2,Cond,stimuli/Wealth/37.jpg,right,82,right,3.42810213699977,1,Cond-30,30
3,Block2,Fix2,stimuli/Healthy/3.jpg,left,83,left,2.51283009100007,1,Fix2-31,31
3,Block2,Fix1,stimuli/Old/16.jpg,right,84,right,3.883368238,1,Fix1-24,24
3,Block2,Fix2,stimuli/Healthy/33.jpg,left,85,left,8.17165334399988,1,Fix2-32,32
3,Block2,Fix1,stimuli/Old/48.jpg,right,86,right,3.26469107299999,1,Fix1-25,25
3,Block2,Fix1,stimuli/Old/39.jpg,right,87,right,2.29532744500011,1,Fix1-26,26
3,Block2,Fix1,stimuli/Old/18.jpg,right,88,right,2.53187508500014,1,Fix1-27,27
3,Block2,Fix1,stimuli/Old/13.jpg,right,89,right,2.10423577000029,1,Fix1-28,28
3,Block2,Fix2,stimuli/Healthy/57.jpg,left,90,left,7.26797368100006,1,Fix2-33,33
3,Block2,Fix2,stimuli/Healthy/19.jpg,left,91,left,3.02664786900004,1,Fix2-34,34
3,Block2,Fix2,stimuli/Healthy/21.jpg,left,92,left,8.39601574199969,1,Fix2-35,35
3,Block2,Fix2,stimuli/Healthy/0.jpg,left,93,left,2.4110046779997,1,Fix2-36,36
3,Block2,Fix1,stimuli/Old/35.jpg,right,94,right,1.98609374099988,1,Fix1-29,29
3,Block2,Fix2,stimuli/Healthy/56.jpg,left,95,left,3.47760504899998,1,Fix2-37,37
3,Block2,Cond,stimuli/Wealth/35.jpg,right,96,left,6.25153487700027,0,Cond-31,31
3,Block2,Fix1,stimuli/Old/23.jpg,right,97,right,6.91960484100036,1,Fix1-30,30
3,Block2,Cond,stimuli/Wealth/42.jpg,left,98,right,3.65214838800011,0,Cond-32,32
3,Block2,Fix2,stimuli/Healthy/24.jpg,left,99,left,12.3937602769997,1,Fix2-38,38
3,Block2,Cond,stimuli/Wealth/54.jpg,right,100,left,6.58453532300018,0,Cond-33,33
3,Block2,Cond,stimuli/Wealth/4.jpg,left,101,right,8.38116577000028,0,Cond-34,34
3,Block2,Fix2,stimuli/Healthy/48.jpg,left,102,left,2.57090447200017,1,Fix2-39,39
3,Block2,Fix2,stimuli/Healthy/15.jpg,left,103,left,2.05433485100002,1,Fix2-40,40
3,Block2,Cond,stimuli/Wealth/38.jpg,right,104,left,9.25938823399974,0,Cond-35,35
3,Block2,Cond,stimuli/Wealth/21.jpg,left,105,right,2.44979394700022,0,Cond-36,36
3,Block2,Fix2,stimuli/Healthy/36.jpg,left,106,left,20.7087476399997,1,Fix2-41,41
3,Block2,Fix1,stimuli/Old/12.jpg,right,107,right,10.476873819,1,Fix1-31,31
3,Block2,Fix2,stimuli/Healthy/69.jpg,left,108,left,2.20693657299989,1,Fix2-42,42
3,Block2,Fix2,stimuli/Healthy/30.jpg,left,109,left,1.8328246799997,1,Fix2-43,43
3,Block2,Cond,stimuli/Wealth/23.jpg,right,110,left,2.54010527499986,0,Cond-37,37
3,Block2,Fix1,stimuli/Old/9.jpg,right,111,right,6.69276119100005,1,Fix1-32,32
3,Block2,Fix1,stimuli/Old/50.jpg,right,112,right,2.10996948699994,1,Fix1-33,33
3,Block2,Fix1,stimuli/Old/5.jpg,right,113,right,2.27156161799985,1,Fix1-34,34
3,Block2,Fix1,stimuli/Old/57.jpg,right,114,right,2.83566124400022,1,Fix1-35,35
3,Block2,Cond,stimuli/Wealth/15.jpg,left,115,right,8.81474317999982,0,Cond-38,38
3,Block2,Fix1,stimuli/Old/26.jpg,right,116,right,3.08820283500017,1,Fix1-36,36
3,Block2,Cond,stimuli/Wealth/47.jpg,left,117,left,3.56958509800006,1,Cond-39,39
3,Block2,Cond,stimuli/Wealth/30.jpg,right,118,right,4.72888919800016,1,Cond-40,40
3,Block2,Cond,stimuli/Wealth/36.jpg,left,119,left,19.7653388189997,1,Cond-41,41
3,Block2,Fix1,stimuli/Old/11.jpg,right,120,left,16.3597448660003,0,Fix1-37,37
3,Block2,Cond,stimuli/Wealth/34.jpg,left,121,left,3.36018483200041,1,Cond-42,42
3,Block2,Fix2,stimuli/Healthy/46.jpg,left,122,left,4.66781842,1,Fix2-44,44
3,Block2,Fix1,stimuli/Old/32.jpg,right,123,right,1.28623757900004,1,Fix1-38,38
3,Block2,Cond,stimuli/Wealth/48.jpg,left,124,left,6.28962820100014,1,Cond-43,43
3,Block2,Fix1,stimuli/Old/27.jpg,right,125,right,3.74202268599993,1,Fix1-39,39
3,Block2,Cond,stimuli/Wealth/29.jpg,left,126,right,5.41464166600008,0,Cond-44,44
3,Block2,Fix1,stimuli/Old/42.jpg,right,127,right,3.0110505749999,1,Fix1-40,40
3,Block2,Fix1,stimuli/Old/4.jpg,right,128,right,4.12761635099969,1,Fix1-41,41
3,Block2,Fix2,stimuli/Healthy/31.jpg,left,129,left,4.64726446200029,1,Fix2-45,45
3,Block2,Cond,stimuli/Wealth/18.jpg,right,130,left,4.62872803099981,0,Cond-45,45
3,Block2,Fix2,stimuli/Healthy/52.jpg,left,131,left,5.07827643100018,1,Fix2-46,46
3,Block2,Fix1,stimuli/Old/52.jpg,right,132,right,3.0960397040003,1,Fix1-42,42
3,Block2,Cond,stimuli/Wealth/39.jpg,left,133,left,3.49113807499998,1,Cond-46,46
3,Block2,Fix1,stimuli/Old/34.jpg,right,134,right,3.20940059400027,1,Fix1-43,43
3,Block2,Fix1,stimuli/Old/22.jpg,right,135,right,15.8344417180001,1,Fix1-44,44
3,Block2,Fix1,stimuli/Old/24.jpg,right,136,right,4.39325924799959,1,Fix1-45,45
3,Block2,Cond,stimuli/Wealth/16.jpg,left,137,right,4.09911830300007,0,Cond-47,47
3,Block2,Fix1,stimuli/Old/25.jpg,right,138,right,4.68815596000013,1,Fix1-46,46
3,Block2,Fix1,stimuli/Old/31.jpg,right,139,right,10.779045709,1,Fix1-47,47
3,Block2,Fix2,stimuli/Healthy/17.jpg,left,140,right,3.24093250300029,0,Fix2-47,47
3,Block2,Fix1,stimuli/Old/41.jpg,right,141,right,5.81815758799985,1,Fix1-48,48
3,Block2,Cond,stimuli/Wealth/50.jpg,left,142,left,3.650946234,1,Cond-48,48
3,Block2,Fix1,stimuli/Old/19.jpg,right,143,right,3.11351952899986,1,Fix1-49,49
3,Block2,Cond,stimuli/Wealth/32.jpg,left,144,left,3.90212598800008,1,Cond-49,49
3,Block2,Fix2,stimuli/Healthy/26.jpg,left,145,right,6.45703911400005,0,Fix2-48,48
3,Block2,Cond,stimuli/Wealth/25.jpg,right,146,left,3.265944279,0,Cond-50,50
3,Block2,Fix1,stimuli/Old/44.jpg,right,147,right,3.96902570600014,1,Fix1-50,50
3,Block2,Fix2,stimuli/Healthy/34.jpg,left,148,left,5.64966476699965,1,Fix2-49,49
3,Block2,Fix2,stimuli/Healthy/28.jpg,left,149,left,3.06677562200002,1,Fix2-50,50
3,Block3,Fix1,stimuli/Sad/18.jpg,right,0,left,4.50553615299987,0,Fix1-1,1
3,Block3,Cond,stimuli/Smell/4.jpg,left,1,left,2.99351085099988,1,Cond-1,1
3,Block3,Fix1,stimuli/Sad/9.jpg,right,2,right,4.02307203500004,1,Fix1-2,2
3,Block3,Cond,stimuli/Smell/48.jpg,left,3,left,2.46124311799986,1,Cond-2,2
3,Block3,Fix1,stimuli/Sad/26.jpg,right,4,right,2.26094593800008,1,Fix1-3,3
3,Block3,Fix2,stimuli/Soft/49.jpg,left,5,right,4.31249334100039,0,Fix2-1,1
3,Block3,Fix2,stimuli/Soft/23.jpg,left,6,left,4.07646693800007,1,Fix2-2,2
3,Block3,Cond,stimuli/Smell/34.jpg,right,7,left,2.11677139699987,0,Cond-3,3
3,Block3,Cond,stimuli/Smell/9.jpg,left,8,right,6.31317501699959,0,Cond-4,4
3,Block3,Fix2,stimuli/Soft/14.jpg,left,9,left,14.5317364970001,1,Fix2-3,3
3,Block3,Fix2,stimuli/Soft/34.jpg,left,10,left,2.49381697299987,1,Fix2-4,4
3,Block3,Fix1,stimuli/Sad/34.jpg,right,11,right,3.75160167600006,1,Fix1-4,4
3,Block3,Fix1,stimuli/Sad/47.jpg,right,12,right,4.1579548980003,1,Fix1-5,5
3,Block3,Fix2,stimuli/Soft/50.jpg,left,13,left,3.41247983499989,1,Fix2-5,5
3,Block3,Fix1,stimuli/Sad/46.jpg,right,14,right,2.88049151900032,1,Fix1-6,6
3,Block3,Fix2,stimuli/Soft/59.jpg,left,15,left,4.40880240600018,1,Fix2-6,6
3,Block3,Fix1,stimuli/Sad/14.jpg,right,16,right,2.63739483000018,1,Fix1-7,7
3,Block3,Fix1,stimuli/Sad/59.jpg,right,17,right,2.08838026600006,1,Fix1-8,8
3,Block3,Fix1,stimuli/Sad/44.jpg,right,18,right,2.88095759499993,1,Fix1-9,9
3,Block3,Fix1,stimuli/Sad/45.jpg,right,19,right,1.97342591799998,1,Fix1-10,10
3,Block3,Cond,stimuli/Smell/52.jpg,left,20,left,2.17469930000016,1,Cond-5,5
3,Block3,Fix1,stimuli/Sad/20.jpg,right,21,right,2.4030817480002,1,Fix1-11,11
3,Block3,Fix2,stimuli/Soft/2.jpg,left,22,left,4.07375350700022,1,Fix2-7,7
3,Block3,Cond,stimuli/Smell/25.jpg,right,23,left,1.92417552699999,0,Cond-6,6
3,Block3,Cond,stimuli/Smell/54.jpg,left,24,left,2.90768891000016,1,Cond-7,7
3,Block3,Cond,stimuli/Smell/33.jpg,right,25,left,2.12720977699973,0,Cond-8,8
3,Block3,Fix1,stimuli/Sad/37.jpg,right,26,right,3.70190022599991,1,Fix1-12,12
3,Block3,Fix1,stimuli/Sad/5.jpg,right,27,right,2.78018681499998,1,Fix1-13,13
3,Block3,Fix1,stimuli/Sad/15.jpg,right,28,right,3.56175194000025,1,Fix1-14,14
3,Block3,Fix1,stimuli/Sad/51.jpg,right,29,right,4.98265384299975,1,Fix1-15,15
3,Block3,Fix1,stimuli/Sad/8.jpg,right,30,right,4.55953822299989,1,Fix1-16,16
3,Block3,Cond,stimuli/Smell/1.jpg,left,31,left,3.98897071700003,1,Cond-9,9
3,Block3,Fix2,stimuli/Soft/24.jpg,left,32,left,2.62557788399999,1,Fix2-8,8
3,Block3,Fix1,stimuli/Sad/23.jpg,right,33,right,1.78505643400013,1,Fix1-17,17
3,Block3,Fix2,stimuli/Soft/19.jpg,left,34,left,2.37799155799985,1,Fix2-9,9
3,Block3,Cond,stimuli/Smell/58.jpg,right,35,left,2.10497220099978,0,Cond-10,10
3,Block3,Fix2,stimuli/Soft/0.jpg,left,36,left,4.97966724600019,1,Fix2-10,10
3,Block3,Cond,stimuli/Smell/19.jpg,right,37,right,8.53688336699997,1,Cond-11,11
3,Block3,Cond,stimuli/Smell/7.jpg,left,38,left,3.55789113600031,1,Cond-12,12
3,Block3,Fix2,stimuli/Soft/58.jpg,left,39,left,2.05866828299986,1,Fix2-11,11
3,Block3,Fix2,stimuli/Soft/11.jpg,left,40,left,1.80617653300033,1,Fix2-12,12
3,Block3,Fix2,stimuli/Soft/41.jpg,left,41,left,2.45281097199995,1,Fix2-13,13
3,Block3,Cond,stimuli/Smell/8.jpg,right,42,right,2.39212390700004,1,Cond-13,13
3,Block3,Fix1,stimuli/Sad/36.jpg,right,43,right,2.28220976400007,1,Fix1-18,18
3,Block3,Cond,stimuli/Smell/22.jpg,left,44,left,2.28807195499985,1,Cond-14,14
3,Block3,Fix2,stimuli/Soft/29.jpg,left,45,left,1.92732124099985,1,Fix2-14,14
3,Block3,Cond,stimuli/Smell/57.jpg,right,46,right,4.17093615600015,1,Cond-15,15
3,Block3,Fix1,stimuli/Sad/57.jpg,right,47,right,2.19687112499969,1,Fix1-19,19
3,Block3,Fix2,stimuli/Soft/28.jpg,left,48,left,1.96607542899983,1,Fix2-15,15
3,Block3,Fix1,stimuli/Sad/54.jpg,right,49,right,6.09159511600001,1,Fix1-20,20
3,Block3,Cond,stimuli/Smell/51.jpg,left,50,left,2.12524593499984,1,Cond-16,16
3,Block3,Cond,stimuli/Smell/13.jpg,right,51,left,2.9150812150001,0,Cond-17,17
3,Block3,Fix2,stimuli/Soft/46.jpg,left,52,left,8.71186416299997,1,Fix2-16,16
3,Block3,Fix1,stimuli/Sad/22.jpg,right,53,right,2.33208312599982,1,Fix1-21,21
3,Block3,Fix1,stimuli/Sad/58.jpg,right,54,right,2.11423189200013,1,Fix1-22,22
3,Block3,Fix2,stimuli/Soft/40.jpg,left,55,left,2.55263491000005,1,Fix2-17,17
3,Block3,Cond,stimuli/Smell/41.jpg,right,56,right,3.56088602,1,Cond-18,18
3,Block3,Fix2,stimuli/Soft/21.jpg,left,57,left,1.9390342329998,1,Fix2-18,18
3,Block3,Fix1,stimuli/Sad/30.jpg,right,58,right,2.3176490689998,1,Fix1-23,23
3,Block3,Fix1,stimuli/Sad/4.jpg,right,59,right,2.0653737130001,1,Fix1-24,24
3,Block3,Cond,stimuli/Smell/42.jpg,left,60,left,2.60436444600009,1,Cond-19,19
