Text,Block1Type,Block1Stim,Block1Corr,Block2Type,Block2Stim,Block2Corr,Block3Type,Block3Stim,Block3Corr,Instruction_loop.thisRepN,Instruction_loop.thisTrialN,Instruction_loop.thisN,Instruction_loop.thisIndex,Block1_loop.thisRepN,Block1_loop.thisTrialN,Block1_loop.thisN,Block1_loop.thisIndex,Block2_loop.thisRepN,Block2_loop.thisTrialN,Block2_loop.thisN,Block2_loop.thisIndex,Block3_loop.thisRepN,Block3_loop.thisTrialN,Block3_loop.thisN,Block3_loop.thisIndex,welcome_text1.started,welcome_text1.stopped,welcome_text2.started,welcome_text2.stopped,welcome_text3.started,welcome_text3.stopped,welcome_resp.keys,welcome_resp.rt,welcome_resp.started,welcome_resp.stopped,instruct_text1.started,instruct_text1.stopped,instruct_text2.started,instruct_text2.stopped,instruct_resp1.keys,instruct_resp1.rt,instruct_resp1.started,instruct_resp1.stopped,start_text1.started,start_text1.stopped,start_text2.started,start_text2.stopped,start_resp1.keys,start_resp1.rt,start_resp1.started,start_resp1.stopped,image1.started,image1.stopped,text1.started,text1.stopped,key_resp1.keys,key_resp1.corr,key_resp1.rt,key_resp1.started,key_resp1.stopped,trialCorrect,feedback_text1.started,feedback_text1.stopped,break_text1.started,break_text1.stopped,break_resp1.keys,break_resp1.rt,break_resp1.started,break_resp1.stopped,intructRemind_text1.started,intructRemind_text1.stopped,instructRemind_text2.started,instructRemind_text2.stopped,instructRemind_resp1.keys,instructRemind_resp1.rt,instructRemind_resp1.started,instructRemind_resp1.stopped,start_text3.started,start_text3.stopped,start_text4.started,start_text4.stopped,start_resp2.keys,start_resp2.rt,start_resp2.started,start_resp2.stopped,image2.started,image2.stopped,text2.started,text2.stopped,key_resp2.keys,key_resp2.corr,key_resp2.rt,key_resp2.started,key_resp2.stopped,feedback_text2.started,feedback_text2.stopped,break_text2.started,break_text2.stopped,break_resp2.keys,break_resp2.rt,break_resp2.started,break_resp2.stopped,start_text5.started,start_text5.stopped,start_text6.started,start_text6.stopped,start_resp3.keys,start_resp3.rt,start_resp3.started,start_resp3.stopped,image3.started,image3.stopped,text3.started,text3.stopped,key_resp3.keys,key_resp3.corr,key_resp3.rt,key_resp3.started,key_resp3.stopped,feedback_text3.started,feedback_text3.stopped,end_text1.started,end_text1.stopped,end_text2.started,end_text2.stopped,end_resp.keys,end_resp.rt,end_resp.started,end_resp.stopped,participant,sex,age,session,date,expName,psychopyVersion,frameRate,
,,,,,,,,,,,,,,,,,,,,,,,,,,55.82080922697787,None,55.82080922697787,None,55.82080922697787,None,return,1.8278763680136763,55.82080922697787,None,,,,,,,,,,,,,,,,,,,,,,,,,,,,,,,,,,,,,,,,,,,,,,,,,,,,,,,,,,,,,,,,,,,,,,,,,,,,,,,,,,,,,,,,,,,,,,,20,Female,20,001,2021_Mar_09_2210,cal_abstract,2020.2.4,60.192742577976475,
"You will be presented with a series of images. It is your job to learn, through trial and error, whether the “Left” or “Right” arrow key should be pressed for each image.",,,,,,,,,,0,0,0,0,,,,,,,,,,,,,,,,,,,,,,,57.720198099996196,None,57.720198099996196,None,return,0.7785123329958878,57.720198099996196,None,,,,,,,,,,,,,,,,,,,,,,,,,,,,,,,,,,,,,,,,,,,,,,,,,,,,,,,,,,,,,,,,,,,,,,,,,,,,,,,,,,,,,,,20,Female,20,001,2021_Mar_09_2210,cal_abstract,2020.2.4,60.192742577976475,
"For some images you should always press “Left”, and for others you should always press “Right” arrow key.",,,,,,,,,,0,1,1,1,,,,,,,,,,,,,,,,,,,,,,,58.537426077004056,None,58.537426077004056,None,return,0.592345679004211,58.537426077004056,None,,,,,,,,,,,,,,,,,,,,,,,,,,,,,,,,,,,,,,,,,,,,,,,,,,,,,,,,,,,,,,,,,,,,,,,,,,,,,,,,,,,,,,,20,Female,20,001,2021_Mar_09_2210,cal_abstract,2020.2.4,60.192742577976475,
Some images are special: the correct response is the opposite of the preceding correct response.,,,,,,,,,,0,2,2,2,,,,,,,,,,,,,,,,,,,,,,,59.17105982199428,None,59.17105982199428,None,return,3.9841779810085427,59.17105982199428,None,,,,,,,,,,,,,,,,,,,,,,,,,,,,,,,,,,,,,,,,,,,,,,,,,,,,,,,,,,,,,,,,,,,,,,,,,,,,,,,,,,,,,,,20,Female,20,001,2021_Mar_09_2210,cal_abstract,2020.2.4,60.192742577976475,
"That is, if the previous correct answer was “Left” then the correct response would now be “Right”.",,,,,,,,,,0,3,3,3,,,,,,,,,,,,,,,,,,,,,,,63.20357478398364,None,63.20357478398364,None,return,2.774542041006498,63.20357478398364,None,,,,,,,,,,,,,,,,,,,,,,,,,,,,,,,,,,,,,,,,,,,,,,,,,,,,,,,,,,,,,,,,,,,,,,,,,,,,,,,,,,,,,,,20,Female,20,001,2021_Mar_09_2210,cal_abstract,2020.2.4,60.192742577976475,
"After each response, you will be told whether you got the item correct or incorrect.",,,,,,,,,,0,4,4,4,,,,,,,,,,,,,,,,,,,,,,,66.02059383399319,None,66.02059383399319,None,return,1.8139144399901852,66.02059383399319,None,,,,,,,,,,,,,,,,,,,,,,,,,,,,,,,,,,,,,,,,,,,,,,,,,,,,,,,,,,,,,,,,,,,,,,,,,,,,,,,,,,,,,,,20,Female,20,001,2021_Mar_09_2210,cal_abstract,2020.2.4,60.192742577976475,
"You can take as long as you like on each image, but the task will not continue until you press the “Left” or “Right” arrow key.",,,,,,,,,,0,5,5,5,,,,,,,,,,,,,,,,,,,,,,,67.87088177597616,None,67.87088177597616,None,return,0.8925496350275353,67.87088177597616,None,,,,,,,,,,,,,,,,,,,,,,,,,,,,,,,,,,,,,,,,,,,,,,,,,,,,,,,,,,,,,,,,,,,,,,,,,,,,,,,,,,,,,,,20,Female,20,001,2021_Mar_09_2210,cal_abstract,2020.2.4,60.192742577976475,
"The experiment will have three blocks, each block will take approximately 10 minutes to complete.",,,,,,,,,,0,6,6,6,,,,,,,,,,,,,,,,,,,,,,,68.8043630750035,None,68.8043630750035,None,return,0.7303184990014415,68.8043630750035,None,,,,,,,,,,,,,,,,,,,,,,,,,,,,,,,,,,,,,,,,,,,,,,,,,,,,,,,,,,,,,,,,,,,,,,,,,,,,,,,,,,,,,,,20,Female,20,001,2021_Mar_09_2210,cal_abstract,2020.2.4,60.192742577976475,
None,,,,,,,,,,0,7,7,7,,,,,,,,,,,,,,,,,,,,,,,69.57137193597737,None,69.57137193597737,None,return,1.2030263320193626,69.57137193597737,None,,,,,,,,,,,,,,,,,,,,,,,,,,,,,,,,,,,,,,,,,,,,,,,,,,,,,,,,,,,,,,,,,,,,,,,,,,,,,,,,,,,,,,,20,Female,20,001,2021_Mar_09_2210,cal_abstract,2020.2.4,60.192742577976475,
None,,,,,,,,,,0,8,8,8,,,,,,,,,,,,,,,,,,,,,,,70.82077726398711,None,70.82077726398711,None,return,0.6997196970041841,70.82077726398711,None,,,,,,,,,,,,,,,,,,,,,,,,,,,,,,,,,,,,,,,,,,,,,,,,,,,,,,,,,,,,,,,,,,,,,,,,,,,,,,,,,,,,,,,20,Female,20,001,2021_Mar_09_2210,cal_abstract,2020.2.4,60.192742577976475,
None,,,,,,,,,,0,9,9,9,,,,,,,,,,,,,,,,,,,,,,,71.55484858498676,None,71.55484858498676,None,return,0.39294102098210715,71.55484858498676,None,,,,,,,,,,,,,,,,,,,,,,,,,,,,,,,,,,,,,,,,,,,,,,,,,,,,,,,,,,,,,,,,,,,,,,,,,,,,,,,,,,,,,,,20,Female,20,001,2021_Mar_09_2210,cal_abstract,2020.2.4,60.192742577976475,
None,,,,,,,,,,0,10,10,10,,,,,,,,,,,,,,,,,,,,,,,71.97434771299595,None,71.97434771299595,None,return,0.5523702899808995,71.97434771299595,None,,,,,,,,,,,,,,,,,,,,,,,,,,,,,,,,,,,,,,,,,,,,,,,,,,,,,,,,,,,,,,,,,,,,,,,,,,,,,,,,,,,,,,,20,Female,20,001,2021_Mar_09_2210,cal_abstract,2020.2.4,60.192742577976475,
None,,,,,,,,,,0,11,11,11,,,,,,,,,,,,,,,,,,,,,,,72.57049905299209,None,72.57049905299209,None,return,0.6091481310140807,72.57049905299209,None,,,,,,,,,,,,,,,,,,,,,,,,,,,,,,,,,,,,,,,,,,,,,,,,,,,,,,,,,,,,,,,,,,,,,,,,,,,,,,,,,,,,,,,20,Female,20,001,2021_Mar_09_2210,cal_abstract,2020.2.4,60.192742577976475,
,,,,,,,,,,,,,,,,,,,,,,,,,,,,,,,,,,,,,,,,,,,,73.2045444159885,None,73.2045444159885,None,s,2.105071516998578,73.2045444159885,None,,,,,,,,,,,,,,,,,,,,,,,,,,,,,,,,,,,,,,,,,,,,,,,,,,,,,,,,,,,,,,,,,,,,,,,,,,,,,,,20,Female,20,001,2021_Mar_09_2210,cal_abstract,2020.2.4,60.192742577976475,
,Fix1,stimuli/Wealth/25.jpg,left,,,,,,,,,,,0,0,0,0,,,,,,,,,,,,,,,,,,,,,,,,,,,,,,,,,,,75.87134832100128,None,75.87134832100128,None,left,1,2.916941436007619,75.87134832100128,None,1,78.82134849799331,None,,,,,,,,,,,,,,,,,,,,,,,,,,,,,,,,,,,,,,,,,,,,,,,,,,,,,,,,,,,,,,,,,,,20,Female,20,001,2021_Mar_09_2210,cal_abstract,2020.2.4,60.192742577976475,
,Fix2,stimuli/Small/21.jpg,right,,,,,,,,,,,0,1,1,1,,,,,,,,,,,,,,,,,,,,,,,,,,,,,,,,,,,79.58992430198123,None,79.58992430198123,None,right,1,1.1342547340027522,79.58992430198123,None,1,80.75379315100145,None,,,,,,,,,,,,,,,,,,,,,,,,,,,,,,,,,,,,,,,,,,,,,,,,,,,,,,,,,,,,,,,,,,,20,Female,20,001,2021_Mar_09_2210,cal_abstract,2020.2.4,60.192742577976475,
,Fix1,stimuli/Wealth/24.jpg,left,,,,,,,,,,,0,2,2,2,,,,,,,,,,,,,,,,,,,,,,,,,,,,,,,,,,,81.52057790200342,None,81.52057790200342,None,left,1,1.0024750789743848,81.52057790200342,None,1,82.55433581100078,None,,,,,,,,,,,,,,,,,,,,,,,,,,,,,,,,,,,,,,,,,,,,,,,,,,,,,,,,,,,,,,,,,,,20,Female,20,001,2021_Mar_09_2210,cal_abstract,2020.2.4,60.192742577976475,
,Fix2,stimuli/Small/41.jpg,right,,,,,,,,,,,0,3,3,3,,,,,,,,,,,,,,,,,,,,,,,,,,,,,,,,,,,83.32396916698781,None,83.32396916698781,None,right,1,1.541312351997476,83.32396916698781,None,1,84.88765451300424,None,,,,,,,,,,,,,,,,,,,,,,,,,,,,,,,,,,,,,,,,,,,,,,,,,,,,,,,,,,,,,,,,,,,20,Female,20,001,2021_Mar_09_2210,cal_abstract,2020.2.4,60.192742577976475,
,Cond,stimuli/Healthy/68.jpg,left,,,,,,,,,,,0,4,4,4,,,,,,,,,,,,,,,,,,,,,,,,,,,,,,,,,,,85.65666782998596,None,85.65666782998596,None,left,1,0.8923725970089436,85.65666782998596,None,1,86.57103262498276,None,,,,,,,,,,,,,,,,,,,,,,,,,,,,,,,,,,,,,,,,,,,,,,,,,,,,,,,,,,,,,,,,,,,20,Female,20,001,2021_Mar_09_2210,cal_abstract,2020.2.4,60.192742577976475,
,Fix2,stimuli/Small/53.jpg,right,,,,,,,,,,,0,5,5,5,,,,,,,,,,,,,,,,,,,,,,,,,,,,,,,,,,,87.35460559098283,None,87.35460559098283,None,right,1,0.8002785870048683,87.35460559098283,None,1,88.18638508699951,None,,,,,,,,,,,,,,,,,,,,,,,,,,,,,,,,,,,,,,,,,,,,,,,,,,,,,,,,,,,,,,,,,,,20,Female,20,001,2021_Mar_09_2210,cal_abstract,2020.2.4,60.192742577976475,
,Fix2,stimuli/Small/33.jpg,right,,,,,,,,,,,0,6,6,6,,,,,,,,,,,,,,,,,,,,,,,,,,,,,,,,,,,88.95971853900119,None,88.95971853900119,None,left,0,2.0207135069940705,88.95971853900119,None,0,91.00352343099075,None,,,,,,,,,,,,,,,,,,,,,,,,,,,,,,,,,,,,,,,,,,,,,,,,,,,,,,,,,,,,,,,,,,,20,Female,20,001,2021_Mar_09_2210,cal_abstract,2020.2.4,60.192742577976475,
,Fix1,stimuli/Wealth/28.jpg,left,,,,,,,,,,,0,7,7,7,,,,,,,,,,,,,,,,,,,,,,,,,,,,,,,,,,,91.77488771200296,None,91.77488771200296,None,left,1,1.0812353040091693,91.77488771200296,None,1,92.88767147198087,None,,,,,,,,,,,,,,,,,,,,,,,,,,,,,,,,,,,,,,,,,,,,,,,,,,,,,,,,,,,,,,,,,,,20,Female,20,001,2021_Mar_09_2210,cal_abstract,2020.2.4,60.192742577976475,
,Fix1,stimuli/Wealth/55.jpg,left,,,,,,,,,,,0,8,8,8,,,,,,,,,,,,,,,,,,,,,,,,,,,,,,,,,,,93.65379452498746,None,93.65379452498746,None,left,1,1.182094848016277,93.65379452498746,None,1,94.85396944099921,None,,,,,,,,,,,,,,,,,,,,,,,,,,,,,,,,,,,,,,,,,,,,,,,,,,,,,,,,,,,,,,,,,,,20,Female,20,001,2021_Mar_09_2210,cal_abstract,2020.2.4,60.192742577976475,
,Fix2,stimuli/Small/12.jpg,right,,,,,,,,,,,0,9,9,9,,,,,,,,,,,,,,,,,,,,,,,,,,,,,,,,,,,95.62133758497657,None,95.62133758497657,None,left,0,1.2195080360106658,95.62133758497657,None,0,96.87111185098183,None,,,,,,,,,,,,,,,,,,,,,,,,,,,,,,,,,,,,,,,,,,,,,,,,,,,,,,,,,,,,,,,,,,,20,Female,20,001,2021_Mar_09_2210,cal_abstract,2020.2.4,60.192742577976475,
,Cond,stimuli/Healthy/0.jpg,left,,,,,,,,,,,0,10,10,10,,,,,,,,,,,,,,,,,,,,,,,,,,,,,,,,,,,97.63727723699412,None,97.63727723699412,None,left,1,0.7304683109978214,97.63727723699412,None,1,98.38802063299227,None,,,,,,,,,,,,,,,,,,,,,,,,,,,,,,,,,,,,,,,,,,,,,,,,,,,,,,,,,,,,,,,,,,,20,Female,20,001,2021_Mar_09_2210,cal_abstract,2020.2.4,60.192742577976475,
,Fix2,stimuli/Small/48.jpg,right,,,,,,,,,,,0,11,11,11,,,,,,,,,,,,,,,,,,,,,,,,,,,,,,,,,,,99.15508023797884,None,99.15508023797884,None,right,1,1.0844065769924782,99.15508023797884,None,1,100.27080297798966,None,,,,,,,,,,,,,,,,,,,,,,,,,,,,,,,,,,,,,,,,,,,,,,,,,,,,,,,,,,,,,,,,,,,20,Female,20,001,2021_Mar_09_2210,cal_abstract,2020.2.4,60.192742577976475,
,Cond,stimuli/Healthy/57.jpg,left,,,,,,,,,,,0,12,12,12,,,,,,,,,,,,,,,,,,,,,,,,,,,,,,,,,,,101.03739759000018,None,101.03739759000018,None,left,1,2.5703073350014165,101.03739759000018,None,1,103.63636676198803,None,,,,,,,,,,,,,,,,,,,,,,,,,,,,,,,,,,,,,,,,,,,,,,,,,,,,,,,,,,,,,,,,,,,20,Female,20,001,2021_Mar_09_2210,cal_abstract,2020.2.4,60.192742577976475,
,Fix1,stimuli/Wealth/54.jpg,left,,,,,,,,,,,0,13,13,13,,,,,,,,,,,,,,,,,,,,,,,,,,,,,,,,,,,104.40534321797895,None,104.40534321797895,None,left,1,1.8222664440108929,104.40534321797895,None,1,106.25321010997868,None,,,,,,,,,,,,,,,,,,,,,,,,,,,,,,,,,,,,,,,,,,,,,,,,,,,,,,,,,,,,,,,,,,,20,Female,20,001,2021_Mar_09_2210,cal_abstract,2020.2.4,60.192742577976475,
,Fix1,stimuli/Wealth/23.jpg,left,,,,,,,,,,,0,14,14,14,,,,,,,,,,,,,,,,,,,,,,,,,,,,,,,,,,,107.03738050500397,None,107.03738050500397,None,left,1,0.843095781019656,107.03738050500397,None,1,107.90383967198431,None,,,,,,,,,,,,,,,,,,,,,,,,,,,,,,,,,,,,,,,,,,,,,,,,,,,,,,,,,,,,,,,,,,,20,Female,20,001,2021_Mar_09_2210,cal_abstract,2020.2.4,60.192742577976475,
,Fix1,stimuli/Wealth/4.jpg,left,,,,,,,,,,,0,15,15,15,,,,,,,,,,,,,,,,,,,,,,,,,,,,,,,,,,,108.67215744199348,None,108.67215744199348,None,left,1,5.417146740015596,108.67215744199348,None,1,114.12109777599107,None,,,,,,,,,,,,,,,,,,,,,,,,,,,,,,,,,,,,,,,,,,,,,,,,,,,,,,,,,,,,,,,,,,,20,Female,20,001,2021_Mar_09_2210,cal_abstract,2020.2.4,60.192742577976475,
,Fix2,stimuli/Small/36.jpg,right,,,,,,,,,,,0,16,16,16,,,,,,,,,,,,,,,,,,,,,,,,,,,,,,,,,,,114.8869517709827,None,114.8869517709827,None,right,1,1.4859714710037224,114.8869517709827,None,1,116.40284123597667,None,,,,,,,,,,,,,,,,,,,,,,,,,,,,,,,,,,,,,,,,,,,,,,,,,,,,,,,,,,,,,,,,,,,20,Female,20,001,2021_Mar_09_2210,cal_abstract,2020.2.4,60.192742577976475,
,Fix2,stimuli/Small/0.jpg,right,,,,,,,,,,,0,17,17,17,,,,,,,,,,,,,,,,,,,,,,,,,,,,,,,,,,,117.17210881999927,None,117.17210881999927,None,right,1,1.1260582999966573,117.17210881999927,None,1,118.32066889898852,None,,,,,,,,,,,,,,,,,,,,,,,,,,,,,,,,,,,,,,,,,,,,,,,,,,,,,,,,,,,,,,,,,,,20,Female,20,001,2021_Mar_09_2210,cal_abstract,2020.2.4,60.192742577976475,
,Cond,stimuli/Healthy/69.jpg,left,,,,,,,,,,,0,18,18,18,,,,,,,,,,,,,,,,,,,,,,,,,,,,,,,,,,,119.08937503799098,None,119.08937503799098,None,left,1,2.413501044997247,119.08937503799098,None,1,121.51991389898467,None,,,,,,,,,,,,,,,,,,,,,,,,,,,,,,,,,,,,,,,,,,,,,,,,,,,,,,,,,,,,,,,,,,,20,Female,20,001,2021_Mar_09_2210,cal_abstract,2020.2.4,60.192742577976475,
,Fix2,stimuli/Small/54.jpg,right,,,,,,,,,,,0,19,19,19,,,,,,,,,,,,,,,,,,,,,,,,,,,,,,,,,,,122.28761259300518,None,122.28761259300518,None,right,1,6.690037744003348,122.28761259300518,None,1,129.0026413189771,None,,,,,,,,,,,,,,,,,,,,,,,,,,,,,,,,,,,,,,,,,,,,,,,,,,,,,,,,,,,,,,,,,,,20,Female,20,001,2021_Mar_09_2210,cal_abstract,2020.2.4,60.192742577976475,
,Fix1,stimuli/Wealth/38.jpg,left,,,,,,,,,,,0,20,20,20,,,,,,,,,,,,,,,,,,,,,,,,,,,,,,,,,,,129.76963055698434,None,129.76963055698434,None,left,1,1.184611987991957,129.76963055698434,None,1,130.98659715999383,None,,,,,,,,,,,,,,,,,,,,,,,,,,,,,,,,,,,,,,,,,,,,,,,,,,,,,,,,,,,,,,,,,,,20,Female,20,001,2021_Mar_09_2210,cal_abstract,2020.2.4,60.192742577976475,
,Fix1,stimuli/Wealth/12.jpg,left,,,,,,,,,,,0,21,21,21,,,,,,,,,,,,,,,,,,,,,,,,,,,,,,,,,,,131.7704465019924,None,131.7704465019924,None,left,1,2.0249404160131235,131.7704465019924,None,1,133.8197435530019,None,,,,,,,,,,,,,,,,,,,,,,,,,,,,,,,,,,,,,,,,,,,,,,,,,,,,,,,,,,,,,,,,,,,20,Female,20,001,2021_Mar_09_2210,cal_abstract,2020.2.4,60.192742577976475,
,Cond,stimuli/Healthy/11.jpg,right,,,,,,,,,,,0,22,22,22,,,,,,,,,,,,,,,,,,,,,,,,,,,,,,,,,,,134.59152957898914,None,134.59152957898914,None,right,1,1.0925713299948256,134.59152957898914,None,1,135.70287769599236,None,,,,,,,,,,,,,,,,,,,,,,,,,,,,,,,,,,,,,,,,,,,,,,,,,,,,,,,,,,,,,,,,,,,20,Female,20,001,2021_Mar_09_2210,cal_abstract,2020.2.4,60.192742577976475,
,Fix2,stimuli/Small/39.jpg,right,,,,,,,,,,,0,23,23,23,,,,,,,,,,,,,,,,,,,,,,,,,,,,,,,,,,,136.47110869697644,None,136.47110869697644,None,right,1,1.0838625679898541,136.47110869697644,None,1,137.58682256698376,None,,,,,,,,,,,,,,,,,,,,,,,,,,,,,,,,,,,,,,,,,,,,,,,,,,,,,,,,,,,,,,,,,,,20,Female,20,001,2021_Mar_09_2210,cal_abstract,2020.2.4,60.192742577976475,
,Fix2,stimuli/Small/5.jpg,right,,,,,,,,,,,0,24,24,24,,,,,,,,,,,,,,,,,,,,,,,,,,,,,,,,,,,138.3558814279968,None,138.3558814279968,None,right,1,0.9990338550123852,138.3558814279968,None,1,139.38673677298357,None,,,,,,,,,,,,,,,,,,,,,,,,,,,,,,,,,,,,,,,,,,,,,,,,,,,,,,,,,,,,,,,,,,,20,Female,20,001,2021_Mar_09_2210,cal_abstract,2020.2.4,60.192742577976475,
,Fix1,stimuli/Wealth/18.jpg,left,,,,,,,,,,,0,25,25,25,,,,,,,,,,,,,,,,,,,,,,,,,,,,,,,,,,,140.17075593100162,None,140.17075593100162,None,left,1,2.2261855470133014,140.17075593100162,None,1,142.42014193200157,None,,,,,,,,,,,,,,,,,,,,,,,,,,,,,,,,,,,,,,,,,,,,,,,,,,,,,,,,,,,,,,,,,,,20,Female,20,001,2021_Mar_09_2210,cal_abstract,2020.2.4,60.192742577976475,
,Cond,stimuli/Healthy/5.jpg,right,,,,,,,,,,,0,26,26,26,,,,,,,,,,,,,,,,,,,,,,,,,,,,,,,,,,,143.18745106097776,None,143.18745106097776,None,right,1,1.4613471039920114,143.18745106097776,None,1,144.67015038599493,None,,,,,,,,,,,,,,,,,,,,,,,,,,,,,,,,,,,,,,,,,,,,,,,,,,,,,,,,,,,,,,,,,,,20,Female,20,001,2021_Mar_09_2210,cal_abstract,2020.2.4,60.192742577976475,
,Fix1,stimuli/Wealth/31.jpg,left,,,,,,,,,,,0,27,27,27,,,,,,,,,,,,,,,,,,,,,,,,,,,,,,,,,,,145.4385681419808,None,145.4385681419808,None,left,1,1.0363071870233398,145.4385681419808,None,1,146.5035032040032,None,,,,,,,,,,,,,,,,,,,,,,,,,,,,,,,,,,,,,,,,,,,,,,,,,,,,,,,,,,,,,,,,,,,20,Female,20,001,2021_Mar_09_2210,cal_abstract,2020.2.4,60.192742577976475,
,Cond,stimuli/Healthy/38.jpg,right,,,,,,,,,,,0,28,28,28,,,,,,,,,,,,,,,,,,,,,,,,,,,,,,,,,,,147.27184557798319,None,147.27184557798319,None,right,1,1.6748257190047298,147.27184557798319,None,1,148.96999669299112,None,,,,,,,,,,,,,,,,,,,,,,,,,,,,,,,,,,,,,,,,,,,,,,,,,,,,,,,,,,,,,,,,,,,20,Female,20,001,2021_Mar_09_2210,cal_abstract,2020.2.4,60.192742577976475,
,Fix2,stimuli/Small/17.jpg,right,,,,,,,,,,,0,29,29,29,,,,,,,,,,,,,,,,,,,,,,,,,,,,,,,,,,,149.7365051889792,None,149.7365051889792,None,right,1,0.7491624169924762,149.7365051889792,None,1,150.50305952798226,None,,,,,,,,,,,,,,,,,,,,,,,,,,,,,,,,,,,,,,,,,,,,,,,,,,,,,,,,,,,,,,,,,,,20,Female,20,001,2021_Mar_09_2210,cal_abstract,2020.2.4,60.192742577976475,
,Cond,stimuli/Healthy/26.jpg,left,,,,,,,,,,,0,30,30,30,,,,,,,,,,,,,,,,,,,,,,,,,,,,,,,,,,,151.26975053700153,None,151.26975053700153,None,left,1,1.7501675790117588,151.26975053700153,None,1,153.053003412002,None,,,,,,,,,,,,,,,,,,,,,,,,,,,,,,,,,,,,,,,,,,,,,,,,,,,,,,,,,,,,,,,,,,,20,Female,20,001,2021_Mar_09_2210,cal_abstract,2020.2.4,60.192742577976475,
,Cond,stimuli/Healthy/44.jpg,right,,,,,,,,,,,0,31,31,31,,,,,,,,,,,,,,,,,,,,,,,,,,,,,,,,,,,153.82028433299274,None,153.82028433299274,None,right,1,0.980289597006049,153.82028433299274,None,1,154.8199833779945,None,,,,,,,,,,,,,,,,,,,,,,,,,,,,,,,,,,,,,,,,,,,,,,,,,,,,,,,,,,,,,,,,,,,20,Female,20,001,2021_Mar_09_2210,cal_abstract,2020.2.4,60.192742577976475,
,Cond,stimuli/Healthy/39.jpg,left,,,,,,,,,,,0,32,32,32,,,,,,,,,,,,,,,,,,,,,,,,,,,,,,,,,,,155.5893183669832,None,155.5893183669832,None,left,1,1.245085956004914,155.5893183669832,None,1,156.8528187329939,None,,,,,,,,,,,,,,,,,,,,,,,,,,,,,,,,,,,,,,,,,,,,,,,,,,,,,,,,,,,,,,,,,,,20,Female,20,001,2021_Mar_09_2210,cal_abstract,2020.2.4,60.192742577976475,
,Cond,stimuli/Healthy/41.jpg,right,,,,,,,,,,,0,33,33,33,,,,,,,,,,,,,,,,,,,,,,,,,,,,,,,,,,,157.62308744198526,None,157.62308744198526,None,right,1,1.2482168019923847,157.62308744198526,None,1,158.9029801430006,None,,,,,,,,,,,,,,,,,,,,,,,,,,,,,,,,,,,,,,,,,,,,,,,,,,,,,,,,,,,,,,,,,,,20,Female,20,001,2021_Mar_09_2210,cal_abstract,2020.2.4,60.192742577976475,
,Fix2,stimuli/Small/60.jpg,right,,,,,,,,,,,0,34,34,34,,,,,,,,,,,,,,,,,,,,,,,,,,,,,,,,,,,159.6729210820049,None,159.6729210820049,None,right,1,0.7526097689988092,159.6729210820049,None,1,160.45295736199478,None,,,,,,,,,,,,,,,,,,,,,,,,,,,,,,,,,,,,,,,,,,,,,,,,,,,,,,,,,,,,,,,,,,,20,Female,20,001,2021_Mar_09_2210,cal_abstract,2020.2.4,60.192742577976475,
,Fix2,stimuli/Small/9.jpg,right,,,,,,,,,,,0,35,35,35,,,,,,,,,,,,,,,,,,,,,,,,,,,,,,,,,,,161.22378609300358,None,161.22378609300358,None,right,1,1.5526724629744422,161.22378609300358,None,1,162.80281344399555,None,,,,,,,,,,,,,,,,,,,,,,,,,,,,,,,,,,,,,,,,,,,,,,,,,,,,,,,,,,,,,,,,,,,20,Female,20,001,2021_Mar_09_2210,cal_abstract,2020.2.4,60.192742577976475,
,Fix1,stimuli/Wealth/13.jpg,left,,,,,,,,,,,0,36,36,36,,,,,,,,,,,,,,,,,,,,,,,,,,,,,,,,,,,163.58701943798224,None,163.58701943798224,None,left,1,1.1850713139865547,163.58701943798224,None,1,164.80286616599187,None,,,,,,,,,,,,,,,,,,,,,,,,,,,,,,,,,,,,,,,,,,,,,,,,,,,,,,,,,,,,,,,,,,,20,Female,20,001,2021_Mar_09_2210,cal_abstract,2020.2.4,60.192742577976475,
,Fix2,stimuli/Small/44.jpg,right,,,,,,,,,,,0,37,37,37,,,,,,,,,,,,,,,,,,,,,,,,,,,,,,,,,,,165.5728887699952,None,165.5728887699952,None,right,1,0.7572553080099169,165.5728887699952,None,1,166.3532576779835,None,,,,,,,,,,,,,,,,,,,,,,,,,,,,,,,,,,,,,,,,,,,,,,,,,,,,,,,,,,,,,,,,,,,20,Female,20,001,2021_Mar_09_2210,cal_abstract,2020.2.4,60.192742577976475,
,Cond,stimuli/Healthy/60.jpg,left,,,,,,,,,,,0,38,38,38,,,,,,,,,,,,,,,,,,,,,,,,,,,,,,,,,,,167.12342340897885,None,167.12342340897885,None,left,1,1.1467004509759136,167.12342340897885,None,1,168.28611568099586,None,,,,,,,,,,,,,,,,,,,,,,,,,,,,,,,,,,,,,,,,,,,,,,,,,,,,,,,,,,,,,,,,,,,20,Female,20,001,2021_Mar_09_2210,cal_abstract,2020.2.4,60.192742577976475,
,Cond,stimuli/Healthy/62.jpg,right,,,,,,,,,,,0,39,39,39,,,,,,,,,,,,,,,,,,,,,,,,,,,,,,,,,,,169.05573923999327,None,169.05573923999327,None,left,0,1.325361625989899,169.05573923999327,None,0,170.40446234698175,None,,,,,,,,,,,,,,,,,,,,,,,,,,,,,,,,,,,,,,,,,,,,,,,,,,,,,,,,,,,,,,,,,,,20,Female,20,001,2021_Mar_09_2210,cal_abstract,2020.2.4,60.192742577976475,
,Fix2,stimuli/Small/22.jpg,right,,,,,,,,,,,0,40,40,40,,,,,,,,,,,,,,,,,,,,,,,,,,,,,,,,,,,171.17183892597677,None,171.17183892597677,None,right,1,1.2222942470107228,171.17183892597677,None,1,172.41942815599032,None,,,,,,,,,,,,,,,,,,,,,,,,,,,,,,,,,,,,,,,,,,,,,,,,,,,,,,,,,,,,,,,,,,,20,Female,20,001,2021_Mar_09_2210,cal_abstract,2020.2.4,60.192742577976475,
,Fix1,stimuli/Wealth/2.jpg,left,,,,,,,,,,,0,41,41,41,,,,,,,,,,,,,,,,,,,,,,,,,,,,,,,,,,,173.18633176397998,None,173.18633176397998,None,left,1,1.82476365097682,173.18633176397998,None,1,175.03593769299914,None,,,,,,,,,,,,,,,,,,,,,,,,,,,,,,,,,,,,,,,,,,,,,,,,,,,,,,,,,,,,,,,,,,,20,Female,20,001,2021_Mar_09_2210,cal_abstract,2020.2.4,60.192742577976475,
,Fix2,stimuli/Small/37.jpg,right,,,,,,,,,,,0,42,42,42,,,,,,,,,,,,,,,,,,,,,,,,,,,,,,,,,,,175.80472515299334,None,175.80472515299334,None,right,1,0.6111875050119124,175.80472515299334,None,1,176.43628530899878,None,,,,,,,,,,,,,,,,,,,,,,,,,,,,,,,,,,,,,,,,,,,,,,,,,,,,,,,,,,,,,,,,,,,20,Female,20,001,2021_Mar_09_2210,cal_abstract,2020.2.4,60.192742577976475,
,Cond,stimuli/Healthy/43.jpg,left,,,,,,,,,,,0,43,43,43,,,,,,,,,,,,,,,,,,,,,,,,,,,,,,,,,,,177.21941070997855,None,177.21941070997855,None,left,1,1.047294399002567,177.21941070997855,None,1,178.2856459869945,None,,,,,,,,,,,,,,,,,,,,,,,,,,,,,,,,,,,,,,,,,,,,,,,,,,,,,,,,,,,,,,,,,,,20,Female,20,001,2021_Mar_09_2210,cal_abstract,2020.2.4,60.192742577976475,
,Fix1,stimuli/Wealth/0.jpg,left,,,,,,,,,,,0,44,44,44,,,,,,,,,,,,,,,,,,,,,,,,,,,,,,,,,,,179.06940404998022,None,179.06940404998022,None,left,1,1.2812394610082265,179.06940404998022,None,1,180.36867573999916,None,,,,,,,,,,,,,,,,,,,,,,,,,,,,,,,,,,,,,,,,,,,,,,,,,,,,,,,,,,,,,,,,,,,20,Female,20,001,2021_Mar_09_2210,cal_abstract,2020.2.4,60.192742577976475,
,Fix1,stimuli/Wealth/5.jpg,left,,,,,,,,,,,0,45,45,45,,,,,,,,,,,,,,,,,,,,,,,,,,,,,,,,,,,181.15273328198236,None,181.15273328198236,None,left,1,0.6751074499916285,181.15273328198236,None,1,181.85293759900378,None,,,,,,,,,,,,,,,,,,,,,,,,,,,,,,,,,,,,,,,,,,,,,,,,,,,,,,,,,,,,,,,,,,,20,Female,20,001,2021_Mar_09_2210,cal_abstract,2020.2.4,60.192742577976475,
,Fix1,stimuli/Wealth/33.jpg,left,,,,,,,,,,,0,46,46,46,,,,,,,,,,,,,,,,,,,,,,,,,,,,,,,,,,,182.62156081598368,None,182.62156081598368,None,left,1,0.8120119739905931,182.62156081598368,None,1,183.45252158798394,None,,,,,,,,,,,,,,,,,,,,,,,,,,,,,,,,,,,,,,,,,,,,,,,,,,,,,,,,,,,,,,,,,,,20,Female,20,001,2021_Mar_09_2210,cal_abstract,2020.2.4,60.192742577976475,
,Fix2,stimuli/Small/57.jpg,right,,,,,,,,,,,0,47,47,47,,,,,,,,,,,,,,,,,,,,,,,,,,,,,,,,,,,184.2368402959837,None,184.2368402959837,None,right,1,1.0456776799983345,184.2368402959837,None,1,185.3021733420028,None,,,,,,,,,,,,,,,,,,,,,,,,,,,,,,,,,,,,,,,,,,,,,,,,,,,,,,,,,,,,,,,,,,,20,Female,20,001,2021_Mar_09_2210,cal_abstract,2020.2.4,60.192742577976475,
,Fix2,stimuli/Small/18.jpg,right,,,,,,,,,,,0,48,48,48,,,,,,,,,,,,,,,,,,,,,,,,,,,,,,,,,,,186.07104236999294,None,186.07104236999294,None,right,1,0.9916684080089908,186.07104236999294,None,1,187.0862009699922,None,,,,,,,,,,,,,,,,,,,,,,,,,,,,,,,,,,,,,,,,,,,,,,,,,,,,,,,,,,,,,,,,,,,20,Female,20,001,2021_Mar_09_2210,cal_abstract,2020.2.4,60.192742577976475,
,Fix1,stimuli/Wealth/48.jpg,left,,,,,,,,,,,0,49,49,49,,,,,,,,,,,,,,,,,,,,,,,,,,,,,,,,,,,187.85307807498612,None,187.85307807498612,None,left,1,0.7245183890045155,187.85307807498612,None,1,188.60234766697977,None,,,,,,,,,,,,,,,,,,,,,,,,,,,,,,,,,,,,,,,,,,,,,,,,,,,,,,,,,,,,,,,,,,,20,Female,20,001,2021_Mar_09_2210,cal_abstract,2020.2.4,60.192742577976475,
,Fix1,stimuli/Wealth/17.jpg,left,,,,,,,,,,,0,50,50,50,,,,,,,,,,,,,,,,,,,,,,,,,,,,,,,,,,,189.38609469198855,None,189.38609469198855,None,left,1,0.9512573580141179,189.38609469198855,None,1,190.36928101899684,None,,,,,,,,,,,,,,,,,,,,,,,,,,,,,,,,,,,,,,,,,,,,,,,,,,,,,,,,,,,,,,,,,,,20,Female,20,001,2021_Mar_09_2210,cal_abstract,2020.2.4,60.192742577976475,
,Cond,stimuli/Healthy/2.jpg,right,,,,,,,,,,,0,51,51,51,,,,,,,,,,,,,,,,,,,,,,,,,,,,,,,,,,,191.13818434698624,None,191.13818434698624,None,right,1,0.545134282001527,191.13818434698624,None,1,191.70240489798016,None,,,,,,,,,,,,,,,,,,,,,,,,,,,,,,,,,,,,,,,,,,,,,,,,,,,,,,,,,,,,,,,,,,,20,Female,20,001,2021_Mar_09_2210,cal_abstract,2020.2.4,60.192742577976475,
,Fix1,stimuli/Wealth/41.jpg,left,,,,,,,,,,,0,52,52,52,,,,,,,,,,,,,,,,,,,,,,,,,,,,,,,,,,,192.470177701005,None,192.470177701005,None,left,1,0.6120785539969802,192.470177701005,None,1,193.10214792197803,None,,,,,,,,,,,,,,,,,,,,,,,,,,,,,,,,,,,,,,,,,,,,,,,,,,,,,,,,,,,,,,,,,,,20,Female,20,001,2021_Mar_09_2210,cal_abstract,2020.2.4,60.192742577976475,
,Fix2,stimuli/Small/24.jpg,right,,,,,,,,,,,0,53,53,53,,,,,,,,,,,,,,,,,,,,,,,,,,,,,,,,,,,193.88665767299244,None,193.88665767299244,None,right,1,0.7004704769933596,193.88665767299244,None,1,194.61945120600285,None,,,,,,,,,,,,,,,,,,,,,,,,,,,,,,,,,,,,,,,,,,,,,,,,,,,,,,,,,,,,,,,,,,,20,Female,20,001,2021_Mar_09_2210,cal_abstract,2020.2.4,60.192742577976475,
,Fix1,stimuli/Wealth/50.jpg,left,,,,,,,,,,,0,54,54,54,,,,,,,,,,,,,,,,,,,,,,,,,,,,,,,,,,,195.38892778599984,None,195.38892778599984,None,left,1,1.566122914024163,195.38892778599984,None,1,196.98617325298255,None,,,,,,,,,,,,,,,,,,,,,,,,,,,,,,,,,,,,,,,,,,,,,,,,,,,,,,,,,,,,,,,,,,,20,Female,20,001,2021_Mar_09_2210,cal_abstract,2020.2.4,60.192742577976475,
,Cond,stimuli/Healthy/9.jpg,right,,,,,,,,,,,0,55,55,55,,,,,,,,,,,,,,,,,,,,,,,,,,,,,,,,,,,197.75350029597757,None,197.75350029597757,None,right,1,2.3354861859988887,197.75350029597757,None,1,200.1187755150022,None,,,,,,,,,,,,,,,,,,,,,,,,,,,,,,,,,,,,,,,,,,,,,,,,,,,,,,,,,,,,,,,,,,,20,Female,20,001,2021_Mar_09_2210,cal_abstract,2020.2.4,60.192742577976475,
,Fix1,stimuli/Wealth/53.jpg,left,,,,,,,,,,,0,56,56,56,,,,,,,,,,,,,,,,,,,,,,,,,,,,,,,,,,,200.90294325599098,None,200.90294325599098,None,left,1,1.0422896410163958,200.90294325599098,None,1,201.9689172639919,None,,,,,,,,,,,,,,,,,,,,,,,,,,,,,,,,,,,,,,,,,,,,,,,,,,,,,,,,,,,,,,,,,,,20,Female,20,001,2021_Mar_09_2210,cal_abstract,2020.2.4,60.192742577976475,
,Fix2,stimuli/Small/40.jpg,right,,,,,,,,,,,0,57,57,57,,,,,,,,,,,,,,,,,,,,,,,,,,,,,,,,,,,202.75299470199388,None,202.75299470199388,None,right,1,0.7731749080121517,202.75299470199388,None,1,203.55202506898786,None,,,,,,,,,,,,,,,,,,,,,,,,,,,,,,,,,,,,,,,,,,,,,,,,,,,,,,,,,,,,,,,,,,,20,Female,20,001,2021_Mar_09_2210,cal_abstract,2020.2.4,60.192742577976475,
,Fix1,stimuli/Wealth/56.jpg,left,,,,,,,,,,,0,58,58,58,,,,,,,,,,,,,,,,,,,,,,,,,,,,,,,,,,,204.3364340289845,None,204.3364340289845,None,left,1,0.7435667770041618,204.3364340289845,None,1,205.10207443198306,None,,,,,,,,,,,,,,,,,,,,,,,,,,,,,,,,,,,,,,,,,,,,,,,,,,,,,,,,,,,,,,,,,,,20,Female,20,001,2021_Mar_09_2210,cal_abstract,2020.2.4,60.192742577976475,
,Cond,stimuli/Healthy/36.jpg,right,,,,,,,,,,,0,59,59,59,,,,,,,,,,,,,,,,,,,,,,,,,,,,,,,,,,,205.87438170198584,None,205.87438170198584,None,right,1,1.2825611789885443,205.87438170198584,None,1,207.18548268298036,None,,,,,,,,,,,,,,,,,,,,,,,,,,,,,,,,,,,,,,,,,,,,,,,,,,,,,,,,,,,,,,,,,,,20,Female,20,001,2021_Mar_09_2210,cal_abstract,2020.2.4,60.192742577976475,
,Fix2,stimuli/Small/45.jpg,right,,,,,,,,,,,0,60,60,60,,,,,,,,,,,,,,,,,,,,,,,,,,,,,,,,,,,207.9554548719898,None,207.9554548719898,None,right,1,2.571512347989483,207.9554548719898,None,1,210.55281142698368,None,,,,,,,,,,,,,,,,,,,,,,,,,,,,,,,,,,,,,,,,,,,,,,,,,,,,,,,,,,,,,,,,,,,20,Female,20,001,2021_Mar_09_2210,cal_abstract,2020.2.4,60.192742577976475,
,Fix2,stimuli/Small/52.jpg,right,,,,,,,,,,,0,61,61,61,,,,,,,,,,,,,,,,,,,,,,,,,,,,,,,,,,,211.31931177899241,None,211.31931177899241,None,right,1,1.1565190980036277,211.31931177899241,None,1,212.50207518899697,None,,,,,,,,,,,,,,,,,,,,,,,,,,,,,,,,,,,,,,,,,,,,,,,,,,,,,,,,,,,,,,,,,,,20,Female,20,001,2021_Mar_09_2210,cal_abstract,2020.2.4,60.192742577976475,
,Fix1,stimuli/Wealth/22.jpg,left,,,,,,,,,,,0,62,62,62,,,,,,,,,,,,,,,,,,,,,,,,,,,,,,,,,,,213.28639616898727,None,213.28639616898727,None,left,1,0.736168784002075,213.28639616898727,None,1,214.05230606999248,None,,,,,,,,,,,,,,,,,,,,,,,,,,,,,,,,,,,,,,,,,,,,,,,,,,,,,,,,,,,,,,,,,,,20,Female,20,001,2021_Mar_09_2210,cal_abstract,2020.2.4,60.192742577976475,
,Fix1,stimuli/Wealth/21.jpg,left,,,,,,,,,,,0,63,63,63,,,,,,,,,,,,,,,,,,,,,,,,,,,,,,,,,,,214.8225249889947,None,214.8225249889947,None,right,0,2.563001514005009,214.8225249889947,None,0,217.4027280570008,None,,,,,,,,,,,,,,,,,,,,,,,,,,,,,,,,,,,,,,,,,,,,,,,,,,,,,,,,,,,,,,,,,,,20,Female,20,001,2021_Mar_09_2210,cal_abstract,2020.2.4,60.192742577976475,
,Cond,stimuli/Healthy/59.jpg,right,,,,,,,,,,,0,64,64,64,,,,,,,,,,,,,,,,,,,,,,,,,,,,,,,,,,,218.17027133799274,None,218.17027133799274,None,left,0,1.396165148995351,218.17027133799274,None,0,219.58570801798487,None,,,,,,,,,,,,,,,,,,,,,,,,,,,,,,,,,,,,,,,,,,,,,,,,,,,,,,,,,,,,,,,,,,,20,Female,20,001,2021_Mar_09_2210,cal_abstract,2020.2.4,60.192742577976475,
,Fix1,stimuli/Wealth/16.jpg,left,,,,,,,,,,,0,65,65,65,,,,,,,,,,,,,,,,,,,,,,,,,,,,,,,,,,,220.35577475998434,None,220.35577475998434,None,left,1,0.6926679810276255,220.35577475998434,None,1,221.07019150597625,None,,,,,,,,,,,,,,,,,,,,,,,,,,,,,,,,,,,,,,,,,,,,,,,,,,,,,,,,,,,,,,,,,,,20,Female,20,001,2021_Mar_09_2210,cal_abstract,2020.2.4,60.192742577976475,
,Fix1,stimuli/Wealth/8.jpg,left,,,,,,,,,,,0,66,66,66,,,,,,,,,,,,,,,,,,,,,,,,,,,,,,,,,,,221.85241494397633,None,221.85241494397633,None,left,1,0.5797995160100982,221.85241494397633,None,1,222.45192811999004,None,,,,,,,,,,,,,,,,,,,,,,,,,,,,,,,,,,,,,,,,,,,,,,,,,,,,,,,,,,,,,,,,,,,20,Female,20,001,2021_Mar_09_2210,cal_abstract,2020.2.4,60.192742577976475,
,Cond,stimuli/Healthy/37.jpg,right,,,,,,,,,,,0,67,67,67,,,,,,,,,,,,,,,,,,,,,,,,,,,,,,,,,,,223.21976238599746,None,223.21976238599746,None,right,1,2.1604220290028024,223.21976238599746,None,1,225.40223560697632,None,,,,,,,,,,,,,,,,,,,,,,,,,,,,,,,,,,,,,,,,,,,,,,,,,,,,,,,,,,,,,,,,,,,20,Female,20,001,2021_Mar_09_2210,cal_abstract,2020.2.4,60.192742577976475,
,Fix2,stimuli/Small/34.jpg,right,,,,,,,,,,,0,68,68,68,,,,,,,,,,,,,,,,,,,,,,,,,,,,,,,,,,,226.17026166798314,None,226.17026166798314,None,right,1,1.7678055120049976,226.17026166798314,None,1,227.96933518900187,None,,,,,,,,,,,,,,,,,,,,,,,,,,,,,,,,,,,,,,,,,,,,,,,,,,,,,,,,,,,,,,,,,,,20,Female,20,001,2021_Mar_09_2210,cal_abstract,2020.2.4,60.192742577976475,
,Fix1,stimuli/Wealth/30.jpg,left,,,,,,,,,,,0,69,69,69,,,,,,,,,,,,,,,,,,,,,,,,,,,,,,,,,,,228.73560198998894,None,228.73560198998894,None,left,1,0.5804960989917163,228.73560198998894,None,1,229.33515265298774,None,,,,,,,,,,,,,,,,,,,,,,,,,,,,,,,,,,,,,,,,,,,,,,,,,,,,,,,,,,,,,,,,,,,20,Female,20,001,2021_Mar_09_2210,cal_abstract,2020.2.4,60.192742577976475,
,Fix1,stimuli/Wealth/52.jpg,left,,,,,,,,,,,0,70,70,70,,,,,,,,,,,,,,,,,,,,,,,,,,,,,,,,,,,230.1075347979786,None,230.1075347979786,None,left,1,0.9986492460011505,230.1075347979786,None,1,231.13532107198262,None,,,,,,,,,,,,,,,,,,,,,,,,,,,,,,,,,,,,,,,,,,,,,,,,,,,,,,,,,,,,,,,,,,,20,Female,20,001,2021_Mar_09_2210,cal_abstract,2020.2.4,60.192742577976475,
,Fix2,stimuli/Small/55.jpg,right,,,,,,,,,,,0,71,71,71,,,,,,,,,,,,,,,,,,,,,,,,,,,,,,,,,,,231.9020345309982,None,231.9020345309982,None,right,1,1.0269186770019587,231.9020345309982,None,1,232.95182756098802,None,,,,,,,,,,,,,,,,,,,,,,,,,,,,,,,,,,,,,,,,,,,,,,,,,,,,,,,,,,,,,,,,,,,20,Female,20,001,2021_Mar_09_2210,cal_abstract,2020.2.4,60.192742577976475,
,Fix2,stimuli/Small/30.jpg,right,,,,,,,,,,,0,72,72,72,,,,,,,,,,,,,,,,,,,,,,,,,,,,,,,,,,,233.72104862399283,None,233.72104862399283,None,right,1,1.0920687399921007,233.72104862399283,None,1,234.8348413509957,None,,,,,,,,,,,,,,,,,,,,,,,,,,,,,,,,,,,,,,,,,,,,,,,,,,,,,,,,,,,,,,,,,,,20,Female,20,001,2021_Mar_09_2210,cal_abstract,2020.2.4,60.192742577976475,
,Fix2,stimuli/Small/31.JPG,right,,,,,,,,,,,0,73,73,73,,,,,,,,,,,,,,,,,,,,,,,,,,,,,,,,,,,235.60534616699442,None,235.60534616699442,None,right,1,1.0595491449930705,235.60534616699442,None,1,236.68494850498973,None,,,,,,,,,,,,,,,,,,,,,,,,,,,,,,,,,,,,,,,,,,,,,,,,,,,,,,,,,,,,,,,,,,,20,Female,20,001,2021_Mar_09_2210,cal_abstract,2020.2.4,60.192742577976475,
,Cond,stimuli/Healthy/8.jpg,left,,,,,,,,,,,0,74,74,74,,,,,,,,,,,,,,,,,,,,,,,,,,,,,,,,,,,237.45489802199882,None,237.45489802199882,None,left,1,1.229907982982695,237.45489802199882,None,1,238.7016661450034,None,,,,,,,,,,,,,,,,,,,,,,,,,,,,,,,,,,,,,,,,,,,,,,,,,,,,,,,,,,,,,,,,,,,20,Female,20,001,2021_Mar_09_2210,cal_abstract,2020.2.4,60.192742577976475,
,Fix2,stimuli/Small/43.jpg,right,,,,,,,,,,,0,75,75,75,,,,,,,,,,,,,,,,,,,,,,,,,,,,,,,,,,,239.47016509299283,None,239.47016509299283,None,right,1,0.8105964889982715,239.47016509299283,None,1,240.30147983098868,None,,,,,,,,,,,,,,,,,,,,,,,,,,,,,,,,,,,,,,,,,,,,,,,,,,,,,,,,,,,,,,,,,,,20,Female,20,001,2021_Mar_09_2210,cal_abstract,2020.2.4,60.192742577976475,
,Fix2,stimuli/Small/46.jpg,right,,,,,,,,,,,0,76,76,76,,,,,,,,,,,,,,,,,,,,,,,,,,,,,,,,,,,241.0701273349987,None,241.0701273349987,None,right,1,0.8465491919778287,241.0701273349987,None,1,241.93502578200423,None,,,,,,,,,,,,,,,,,,,,,,,,,,,,,,,,,,,,,,,,,,,,,,,,,,,,,,,,,,,,,,,,,,,20,Female,20,001,2021_Mar_09_2210,cal_abstract,2020.2.4,60.192742577976475,
,Cond,stimuli/Healthy/40.jpg,left,,,,,,,,,,,0,77,77,77,,,,,,,,,,,,,,,,,,,,,,,,,,,,,,,,,,,242.70640330499737,None,242.70640330499737,None,left,1,3.6744109260034747,242.70640330499737,None,1,246.40202902298188,None,,,,,,,,,,,,,,,,,,,,,,,,,,,,,,,,,,,,,,,,,,,,,,,,,,,,,,,,,,,,,,,,,,,20,Female,20,001,2021_Mar_09_2210,cal_abstract,2020.2.4,60.192742577976475,
,Cond,stimuli/Healthy/46.jpg,right,,,,,,,,,,,0,78,78,78,,,,,,,,,,,,,,,,,,,,,,,,,,,,,,,,,,,247.17157448400394,None,247.17157448400394,None,right,1,0.9061459959775675,247.17157448400394,None,1,248.1022450570017,None,,,,,,,,,,,,,,,,,,,,,,,,,,,,,,,,,,,,,,,,,,,,,,,,,,,,,,,,,,,,,,,,,,,20,Female,20,001,2021_Mar_09_2210,cal_abstract,2020.2.4,60.192742577976475,
,Fix1,stimuli/Wealth/14.jpg,left,,,,,,,,,,,0,79,79,79,,,,,,,,,,,,,,,,,,,,,,,,,,,,,,,,,,,248.87151099098264,None,248.87151099098264,None,left,1,0.9370440649800003,248.87151099098264,None,1,249.8349176219781,None,,,,,,,,,,,,,,,,,,,,,,,,,,,,,,,,,,,,,,,,,,,,,,,,,,,,,,,,,,,,,,,,,,,20,Female,20,001,2021_Mar_09_2210,cal_abstract,2020.2.4,60.192742577976475,
,Fix2,stimuli/Small/7.jpg,right,,,,,,,,,,,0,80,80,80,,,,,,,,,,,,,,,,,,,,,,,,,,,,,,,,,,,250.60409432798042,None,250.60409432798042,None,right,1,1.1395419370091986,250.60409432798042,None,1,251.7676973810012,None,,,,,,,,,,,,,,,,,,,,,,,,,,,,,,,,,,,,,,,,,,,,,,,,,,,,,,,,,,,,,,,,,,,20,Female,20,001,2021_Mar_09_2210,cal_abstract,2020.2.4,60.192742577976475,
,Fix1,stimuli/Wealth/35.jpg,left,,,,,,,,,,,0,81,81,81,,,,,,,,,,,,,,,,,,,,,,,,,,,,,,,,,,,252.5341280050052,None,252.5341280050052,None,left,1,0.8701192059961613,252.5341280050052,None,1,253.43429545499384,None,,,,,,,,,,,,,,,,,,,,,,,,,,,,,,,,,,,,,,,,,,,,,,,,,,,,,,,,,,,,,,,,,,,20,Female,20,001,2021_Mar_09_2210,cal_abstract,2020.2.4,60.192742577976475,
,Cond,stimuli/Healthy/66.jpg,right,,,,,,,,,,,0,82,82,82,,,,,,,,,,,,,,,,,,,,,,,,,,,,,,,,,,,254.20231278098072,None,254.20231278098072,None,right,1,1.3241146719956305,254.20231278098072,None,1,255.5515816010011,None,,,,,,,,,,,,,,,,,,,,,,,,,,,,,,,,,,,,,,,,,,,,,,,,,,,,,,,,,,,,,,,,,,,20,Female,20,001,2021_Mar_09_2210,cal_abstract,2020.2.4,60.192742577976475,
,Cond,stimuli/Healthy/7.jpg,left,,,,,,,,,,,0,83,83,83,,,,,,,,,,,,,,,,,,,,,,,,,,,,,,,,,,,256.31816618097946,None,256.31816618097946,None,left,1,1.380008779000491,256.31816618097946,None,1,257.71790308799245,None,,,,,,,,,,,,,,,,,,,,,,,,,,,,,,,,,,,,,,,,,,,,,,,,,,,,,,,,,,,,,,,,,,,20,Female,20,001,2021_Mar_09_2210,cal_abstract,2020.2.4,60.192742577976475,
,Fix1,stimuli/Wealth/19.jpg,left,,,,,,,,,,,0,84,84,84,,,,,,,,,,,,,,,,,,,,,,,,,,,,,,,,,,,258.4863382499898,None,258.4863382499898,None,left,1,0.973999055015156,258.4863382499898,None,1,259.48486518100253,None,,,,,,,,,,,,,,,,,,,,,,,,,,,,,,,,,,,,,,,,,,,,,,,,,,,,,,,,,,,,,,,,,,,20,Female,20,001,2021_Mar_09_2210,cal_abstract,2020.2.4,60.192742577976475,
,Cond,stimuli/Healthy/30.jpg,right,,,,,,,,,,,0,85,85,85,,,,,,,,,,,,,,,,,,,,,,,,,,,,,,,,,,,260.25528466899414,None,260.25528466899414,None,right,1,1.9348292890063021,260.25528466899414,None,1,262.2184905449976,None,,,,,,,,,,,,,,,,,,,,,,,,,,,,,,,,,,,,,,,,,,,,,,,,,,,,,,,,,,,,,,,,,,,20,Female,20,001,2021_Mar_09_2210,cal_abstract,2020.2.4,60.192742577976475,
,Fix1,stimuli/Wealth/37.jpg,left,,,,,,,,,,,0,86,86,86,,,,,,,,,,,,,,,,,,,,,,,,,,,,,,,,,,,262.9856136449962,None,262.9856136449962,None,left,1,0.9943828260002192,262.9856136449962,None,1,264.0018556639843,None,,,,,,,,,,,,,,,,,,,,,,,,,,,,,,,,,,,,,,,,,,,,,,,,,,,,,,,,,,,,,,,,,,,20,Female,20,001,2021_Mar_09_2210,cal_abstract,2020.2.4,60.192742577976475,
,Fix2,stimuli/Small/58.jpg,right,,,,,,,,,,,0,87,87,87,,,,,,,,,,,,,,,,,,,,,,,,,,,,,,,,,,,264.78512246598257,None,264.78512246598257,None,right,1,0.9618733379757032,264.78512246598257,None,1,265.76832941599423,None,,,,,,,,,,,,,,,,,,,,,,,,,,,,,,,,,,,,,,,,,,,,,,,,,,,,,,,,,,,,,,,,,,,20,Female,20,001,2021_Mar_09_2210,cal_abstract,2020.2.4,60.192742577976475,
,Fix2,stimuli/Small/10.jpg,right,,,,,,,,,,,0,88,88,88,,,,,,,,,,,,,,,,,,,,,,,,,,,,,,,,,,,266.5367702009971,None,266.5367702009971,None,right,1,1.2950742760149296,266.5367702009971,None,1,267.8513828899886,None,,,,,,,,,,,,,,,,,,,,,,,,,,,,,,,,,,,,,,,,,,,,,,,,,,,,,,,,,,,,,,,,,,,20,Female,20,001,2021_Mar_09_2210,cal_abstract,2020.2.4,60.192742577976475,
,Cond,stimuli/Healthy/19.jpg,left,,,,,,,,,,,0,89,89,89,,,,,,,,,,,,,,,,,,,,,,,,,,,,,,,,,,,268.62039913298213,None,268.62039913298213,None,left,1,1.5633577310072724,268.62039913298213,None,1,270.2011383539939,None,,,,,,,,,,,,,,,,,,,,,,,,,,,,,,,,,,,,,,,,,,,,,,,,,,,,,,,,,,,,,,,,,,,20,Female,20,001,2021_Mar_09_2210,cal_abstract,2020.2.4,60.192742577976475,
,Cond,stimuli/Healthy/34.jpg,right,,,,,,,,,,,0,90,90,90,,,,,,,,,,,,,,,,,,,,,,,,,,,,,,,,,,,270.9697356419929,None,270.9697356419929,None,right,1,1.1420278039877303,270.9697356419929,None,1,272.1353410540032,None,,,,,,,,,,,,,,,,,,,,,,,,,,,,,,,,,,,,,,,,,,,,,,,,,,,,,,,,,,,,,,,,,,,20,Female,20,001,2021_Mar_09_2210,cal_abstract,2020.2.4,60.192742577976475,
,Fix1,stimuli/Wealth/43.jpg,left,,,,,,,,,,,0,91,91,91,,,,,,,,,,,,,,,,,,,,,,,,,,,,,,,,,,,272.9022879569966,None,272.9022879569966,None,left,1,1.1056975559913553,272.9022879569966,None,1,274.03450438397704,None,,,,,,,,,,,,,,,,,,,,,,,,,,,,,,,,,,,,,,,,,,,,,,,,,,,,,,,,,,,,,,,,,,,20,Female,20,001,2021_Mar_09_2210,cal_abstract,2020.2.4,60.192742577976475,
,Cond,stimuli/Healthy/4.jpg,right,,,,,,,,,,,0,92,92,92,,,,,,,,,,,,,,,,,,,,,,,,,,,,,,,,,,,274.8014536019764,None,274.8014536019764,None,right,1,0.9372312380000949,274.8014536019764,None,1,275.7673202040023,None,,,,,,,,,,,,,,,,,,,,,,,,,,,,,,,,,,,,,,,,,,,,,,,,,,,,,,,,,,,,,,,,,,,20,Female,20,001,2021_Mar_09_2210,cal_abstract,2020.2.4,60.192742577976475,
,Fix2,stimuli/Small/1.jpg,right,,,,,,,,,,,0,93,93,93,,,,,,,,,,,,,,,,,,,,,,,,,,,,,,,,,,,276.5387037110049,None,276.5387037110049,None,right,1,1.032768428005511,276.5387037110049,None,1,277.6017334799981,None,,,,,,,,,,,,,,,,,,,,,,,,,,,,,,,,,,,,,,,,,,,,,,,,,,,,,,,,,,,,,,,,,,,20,Female,20,001,2021_Mar_09_2210,cal_abstract,2020.2.4,60.192742577976475,
,Cond,stimuli/Healthy/50.jpg,left,,,,,,,,,,,0,94,94,94,,,,,,,,,,,,,,,,,,,,,,,,,,,,,,,,,,,278.3687270649825,None,278.3687270649825,None,left,1,0.9439483919995837,278.3687270649825,None,1,279.3354172069812,None,,,,,,,,,,,,,,,,,,,,,,,,,,,,,,,,,,,,,,,,,,,,,,,,,,,,,,,,,,,,,,,,,,,20,Female,20,001,2021_Mar_09_2210,cal_abstract,2020.2.4,60.192742577976475,
,Fix1,stimuli/Wealth/27.jpg,left,,,,,,,,,,,0,95,95,95,,,,,,,,,,,,,,,,,,,,,,,,,,,,,,,,,,,280.10364728499553,None,280.10364728499553,None,left,1,0.8198498199926689,280.10364728499553,None,1,280.95110910298536,None,,,,,,,,,,,,,,,,,,,,,,,,,,,,,,,,,,,,,,,,,,,,,,,,,,,,,,,,,,,,,,,,,,,20,Female,20,001,2021_Mar_09_2210,cal_abstract,2020.2.4,60.192742577976475,
,Cond,stimuli/Healthy/29.jpg,right,,,,,,,,,,,0,96,96,96,,,,,,,,,,,,,,,,,,,,,,,,,,,,,,,,,,,281.720000434987,None,281.720000434987,None,right,1,0.9633863070048392,281.720000434987,None,1,282.70168219399056,None,,,,,,,,,,,,,,,,,,,,,,,,,,,,,,,,,,,,,,,,,,,,,,,,,,,,,,,,,,,,,,,,,,,20,Female,20,001,2021_Mar_09_2210,cal_abstract,2020.2.4,60.192742577976475,
,Cond,stimuli/Healthy/15.jpg,left,,,,,,,,,,,0,97,97,97,,,,,,,,,,,,,,,,,,,,,,,,,,,,,,,,,,,283.4675029149803,None,283.4675029149803,None,left,1,2.251775793993147,283.4675029149803,None,1,285.7518442859873,None,,,,,,,,,,,,,,,,,,,,,,,,,,,,,,,,,,,,,,,,,,,,,,,,,,,,,,,,,,,,,,,,,,,20,Female,20,001,2021_Mar_09_2210,cal_abstract,2020.2.4,60.192742577976475,
,Cond,stimuli/Healthy/27.jpg,right,,,,,,,,,,,0,98,98,98,,,,,,,,,,,,,,,,,,,,,,,,,,,,,,,,,,,286.5209415720019,None,286.5209415720019,None,right,1,2.2952598840056453,286.5209415720019,None,1,288.83391570599633,None,,,,,,,,,,,,,,,,,,,,,,,,,,,,,,,,,,,,,,,,,,,,,,,,,,,,,,,,,,,,,,,,,,,20,Female,20,001,2021_Mar_09_2210,cal_abstract,2020.2.4,60.192742577976475,
,Cond,stimuli/Healthy/32.jpg,left,,,,,,,,,,,0,99,99,99,,,,,,,,,,,,,,,,,,,,,,,,,,,,,,,,,,,289.60070872399956,None,289.60070872399956,None,left,1,0.9693509900243953,289.60070872399956,None,1,290.6011369159969,None,,,,,,,,,,,,,,,,,,,,,,,,,,,,,,,,,,,,,,,,,,,,,,,,,,,,,,,,,,,,,,,,,,,20,Female,20,001,2021_Mar_09_2210,cal_abstract,2020.2.4,60.192742577976475,
,Fix1,stimuli/Wealth/49.jpg,left,,,,,,,,,,,0,100,100,100,,,,,,,,,,,,,,,,,,,,,,,,,,,,,,,,,,,291.3729964719969,None,291.3729964719969,None,left,1,0.828188379004132,291.3729964719969,None,1,292.21807564698975,None,,,,,,,,,,,,,,,,,,,,,,,,,,,,,,,,,,,,,,,,,,,,,,,,,,,,,,,,,,,,,,,,,,,20,Female,20,001,2021_Mar_09_2210,cal_abstract,2020.2.4,60.192742577976475,
,Fix1,stimuli/Wealth/44.jpg,left,,,,,,,,,,,0,101,101,101,,,,,,,,,,,,,,,,,,,,,,,,,,,,,,,,,,,292.98707017698325,None,292.98707017698325,None,left,1,1.2061700580234174,292.98707017698325,None,1,294.21802972699516,None,,,,,,,,,,,,,,,,,,,,,,,,,,,,,,,,,,,,,,,,,,,,,,,,,,,,,,,,,,,,,,,,,,,20,Female,20,001,2021_Mar_09_2210,cal_abstract,2020.2.4,60.192742577976475,
,Fix1,stimuli/Wealth/11.jpg,left,,,,,,,,,,,0,102,102,102,,,,,,,,,,,,,,,,,,,,,,,,,,,,,,,,,,,294.9848883689847,None,294.9848883689847,None,left,1,0.9680478639784269,294.9848883689847,None,1,295.9842424719827,None,,,,,,,,,,,,,,,,,,,,,,,,,,,,,,,,,,,,,,,,,,,,,,,,,,,,,,,,,,,,,,,,,,,20,Female,20,001,2021_Mar_09_2210,cal_abstract,2020.2.4,60.192742577976475,
,Cond,stimuli/Healthy/17.jpg,right,,,,,,,,,,,0,103,103,103,,,,,,,,,,,,,,,,,,,,,,,,,,,,,,,,,,,296.7539076389803,None,296.7539076389803,None,right,1,1.0361808279994875,296.7539076389803,None,1,297.81788499699906,None,,,,,,,,,,,,,,,,,,,,,,,,,,,,,,,,,,,,,,,,,,,,,,,,,,,,,,,,,,,,,,,,,,,20,Female,20,001,2021_Mar_09_2210,cal_abstract,2020.2.4,60.192742577976475,
,Cond,stimuli/Healthy/31.jpg,left,,,,,,,,,,,0,104,104,104,,,,,,,,,,,,,,,,,,,,,,,,,,,,,,,,,,,298.58886380598415,None,298.58886380598415,None,left,1,2.188077674014494,298.58886380598415,None,1,300.8009423170006,None,,,,,,,,,,,,,,,,,,,,,,,,,,,,,,,,,,,,,,,,,,,,,,,,,,,,,,,,,,,,,,,,,,,20,Female,20,001,2021_Mar_09_2210,cal_abstract,2020.2.4,60.192742577976475,
,Fix1,stimuli/Wealth/15.jpg,left,,,,,,,,,,,0,105,105,105,,,,,,,,,,,,,,,,,,,,,,,,,,,,,,,,,,,301.5680929099908,None,301.5680929099908,None,left,1,1.0986532850074582,301.5680929099908,None,1,302.6847288610006,None,,,,,,,,,,,,,,,,,,,,,,,,,,,,,,,,,,,,,,,,,,,,,,,,,,,,,,,,,,,,,,,,,,,20,Female,20,001,2021_Mar_09_2210,cal_abstract,2020.2.4,60.192742577976475,
,Fix2,stimuli/Small/47.jpg,right,,,,,,,,,,,0,106,106,106,,,,,,,,,,,,,,,,,,,,,,,,,,,,,,,,,,,303.45187940399046,None,303.45187940399046,None,right,1,1.0959643430251162,303.45187940399046,None,1,304.5678798869776,None,,,,,,,,,,,,,,,,,,,,,,,,,,,,,,,,,,,,,,,,,,,,,,,,,,,,,,,,,,,,,,,,,,,20,Female,20,001,2021_Mar_09_2210,cal_abstract,2020.2.4,60.192742577976475,
,Fix1,stimuli/Wealth/7.jpg,left,,,,,,,,,,,0,107,107,107,,,,,,,,,,,,,,,,,,,,,,,,,,,,,,,,,,,305.3376249819994,None,305.3376249819994,None,left,1,1.626978632004466,305.3376249819994,None,1,306.9838910200051,None,,,,,,,,,,,,,,,,,,,,,,,,,,,,,,,,,,,,,,,,,,,,,,,,,,,,,,,,,,,,,,,,,,,20,Female,20,001,2021_Mar_09_2210,cal_abstract,2020.2.4,60.192742577976475,
,Cond,stimuli/Healthy/47.jpg,right,,,,,,,,,,,0,108,108,108,,,,,,,,,,,,,,,,,,,,,,,,,,,,,,,,,,,307.7528495010047,None,307.7528495010047,None,right,1,1.2607183580112178,307.7528495010047,None,1,309.0337204519892,None,,,,,,,,,,,,,,,,,,,,,,,,,,,,,,,,,,,,,,,,,,,,,,,,,,,,,,,,,,,,,,,,,,,20,Female,20,001,2021_Mar_09_2210,cal_abstract,2020.2.4,60.192742577976475,
,Fix1,stimuli/Wealth/46.jpg,left,,,,,,,,,,,0,109,109,109,,,,,,,,,,,,,,,,,,,,,,,,,,,,,,,,,,,309.8021252019971,None,309.8021252019971,None,left,1,2.8983534360013437,309.8021252019971,None,1,312.717967915989,None,,,,,,,,,,,,,,,,,,,,,,,,,,,,,,,,,,,,,,,,,,,,,,,,,,,,,,,,,,,,,,,,,,,20,Female,20,001,2021_Mar_09_2210,cal_abstract,2020.2.4,60.192742577976475,
,Fix2,stimuli/Small/11.jpg,right,,,,,,,,,,,0,110,110,110,,,,,,,,,,,,,,,,,,,,,,,,,,,,,,,,,,,313.48451028499403,None,313.48451028499403,None,right,1,1.169837452005595,313.48451028499403,None,1,314.6839584329864,None,,,,,,,,,,,,,,,,,,,,,,,,,,,,,,,,,,,,,,,,,,,,,,,,,,,,,,,,,,,,,,,,,,,20,Female,20,001,2021_Mar_09_2210,cal_abstract,2020.2.4,60.192742577976475,
,Fix2,stimuli/Small/19.jpg,right,,,,,,,,,,,0,111,111,111,,,,,,,,,,,,,,,,,,,,,,,,,,,,,,,,,,,315.45338689899654,None,315.45338689899654,None,right,1,2.053118333016755,315.45338689899654,None,1,317.5344797259895,None,,,,,,,,,,,,,,,,,,,,,,,,,,,,,,,,,,,,,,,,,,,,,,,,,,,,,,,,,,,,,,,,,,,20,Female,20,001,2021_Mar_09_2210,cal_abstract,2020.2.4,60.192742577976475,
,Cond,stimuli/Healthy/64.jpg,left,,,,,,,,,,,0,112,112,112,,,,,,,,,,,,,,,,,,,,,,,,,,,,,,,,,,,318.30340222700033,None,318.30340222700033,None,left,1,0.732728342001792,318.30340222700033,None,1,319.0672458559857,None,,,,,,,,,,,,,,,,,,,,,,,,,,,,,,,,,,,,,,,,,,,,,,,,,,,,,,,,,,,,,,,,,,,20,Female,20,001,2021_Mar_09_2210,cal_abstract,2020.2.4,60.192742577976475,
,Fix1,stimuli/Wealth/36.jpg,left,,,,,,,,,,,0,113,113,113,,,,,,,,,,,,,,,,,,,,,,,,,,,,,,,,,,,319.83917943100096,None,319.83917943100096,None,left,1,0.5979162480216473,319.83917943100096,None,1,320.46767695300514,None,,,,,,,,,,,,,,,,,,,,,,,,,,,,,,,,,,,,,,,,,,,,,,,,,,,,,,,,,,,,,,,,,,,20,Female,20,001,2021_Mar_09_2210,cal_abstract,2020.2.4,60.192742577976475,
,Fix2,stimuli/Small/13.jpg,right,,,,,,,,,,,0,114,114,114,,,,,,,,,,,,,,,,,,,,,,,,,,,,,,,,,,,321.2375053369906,None,321.2375053369906,None,right,1,0.646644576016115,321.2375053369906,None,1,321.9005058420007,None,,,,,,,,,,,,,,,,,,,,,,,,,,,,,,,,,,,,,,,,,,,,,,,,,,,,,,,,,,,,,,,,,,,20,Female,20,001,2021_Mar_09_2210,cal_abstract,2020.2.4,60.192742577976475,
,Fix1,stimuli/Wealth/9.jpg,left,,,,,,,,,,,0,115,115,115,,,,,,,,,,,,,,,,,,,,,,,,,,,,,,,,,,,322.6702854259929,None,322.6702854259929,None,left,1,0.5688791050051805,322.6702854259929,None,1,323.2677615369903,None,,,,,,,,,,,,,,,,,,,,,,,,,,,,,,,,,,,,,,,,,,,,,,,,,,,,,,,,,,,,,,,,,,,20,Female,20,001,2021_Mar_09_2210,cal_abstract,2020.2.4,60.192742577976475,
,Fix2,stimuli/Small/20.jpg,right,,,,,,,,,,,0,116,116,116,,,,,,,,,,,,,,,,,,,,,,,,,,,,,,,,,,,324.0348066749866,None,324.0348066749866,None,right,1,0.6602679410134442,324.0348066749866,None,1,324.71749507897766,None,,,,,,,,,,,,,,,,,,,,,,,,,,,,,,,,,,,,,,,,,,,,,,,,,,,,,,,,,,,,,,,,,,,20,Female,20,001,2021_Mar_09_2210,cal_abstract,2020.2.4,60.192742577976475,
,Fix2,stimuli/Small/56.jpg,right,,,,,,,,,,,0,117,117,117,,,,,,,,,,,,,,,,,,,,,,,,,,,,,,,,,,,325.4862991559785,None,325.4862991559785,None,right,1,0.6506212099920958,325.4862991559785,None,1,326.1671192079957,None,,,,,,,,,,,,,,,,,,,,,,,,,,,,,,,,,,,,,,,,,,,,,,,,,,,,,,,,,,,,,,,,,,,20,Female,20,001,2021_Mar_09_2210,cal_abstract,2020.2.4,60.192742577976475,
,Cond,stimuli/Healthy/22.jpg,left,,,,,,,,,,,0,118,118,118,,,,,,,,,,,,,,,,,,,,,,,,,,,,,,,,,,,326.9367574569769,None,326.9367574569769,None,left,1,0.641147306014318,326.9367574569769,None,1,327.6012174600037,None,,,,,,,,,,,,,,,,,,,,,,,,,,,,,,,,,,,,,,,,,,,,,,,,,,,,,,,,,,,,,,,,,,,20,Female,20,001,2021_Mar_09_2210,cal_abstract,2020.2.4,60.192742577976475,
,Fix2,stimuli/Small/8.jpg,right,,,,,,,,,,,0,119,119,119,,,,,,,,,,,,,,,,,,,,,,,,,,,,,,,,,,,328.38445096000214,None,328.38445096000214,None,right,1,0.6164610229898244,328.38445096000214,None,1,329.03406046598684,None,,,,,,,,,,,,,,,,,,,,,,,,,,,,,,,,,,,,,,,,,,,,,,,,,,,,,,,,,,,,,,,,,,,20,Female,20,001,2021_Mar_09_2210,cal_abstract,2020.2.4,60.192742577976475,
,Fix1,stimuli/Wealth/57.jpg,left,,,,,,,,,,,0,120,120,120,,,,,,,,,,,,,,,,,,,,,,,,,,,,,,,,,,,329.80418938799994,None,329.80418938799994,None,left,1,1.278607838001335,329.80418938799994,None,1,331.10056929299026,None,,,,,,,,,,,,,,,,,,,,,,,,,,,,,,,,,,,,,,,,,,,,,,,,,,,,,,,,,,,,,,,,,,,20,Female,20,001,2021_Mar_09_2210,cal_abstract,2020.2.4,60.192742577976475,
,Cond,stimuli/Healthy/24.jpg,right,,,,,,,,,,,0,121,121,121,,,,,,,,,,,,,,,,,,,,,,,,,,,,,,,,,,,331.8837368020031,None,331.8837368020031,None,right,1,1.8970182860211935,331.8837368020031,None,1,333.80030397800147,None,,,,,,,,,,,,,,,,,,,,,,,,,,,,,,,,,,,,,,,,,,,,,,,,,,,,,,,,,,,,,,,,,,,20,Female,20,001,2021_Mar_09_2210,cal_abstract,2020.2.4,60.192742577976475,
,Cond,stimuli/Healthy/1.jpg,left,,,,,,,,,,,0,122,122,122,,,,,,,,,,,,,,,,,,,,,,,,,,,,,,,,,,,334.56815716598067,None,334.56815716598067,None,left,1,0.9567532759974711,334.56815716598067,None,1,335.55050506899715,None,,,,,,,,,,,,,,,,,,,,,,,,,,,,,,,,,,,,,,,,,,,,,,,,,,,,,,,,,,,,,,,,,,,20,Female,20,001,2021_Mar_09_2210,cal_abstract,2020.2.4,60.192742577976475,
,Cond,stimuli/Healthy/13.jpg,right,,,,,,,,,,,0,123,123,123,,,,,,,,,,,,,,,,,,,,,,,,,,,,,,,,,,,336.3203477249772,None,336.3203477249772,None,right,1,0.5843500009796117,336.3203477249772,None,1,336.93309537900495,None,,,,,,,,,,,,,,,,,,,,,,,,,,,,,,,,,,,,,,,,,,,,,,,,,,,,,,,,,,,,,,,,,,,20,Female,20,001,2021_Mar_09_2210,cal_abstract,2020.2.4,60.192742577976475,
,Fix2,stimuli/Small/26.jpg,right,,,,,,,,,,,0,124,124,124,,,,,,,,,,,,,,,,,,,,,,,,,,,,,,,,,,,337.7040093249816,None,337.7040093249816,None,right,1,0.907568202004768,337.7040093249816,None,1,338.6340915710025,None,,,,,,,,,,,,,,,,,,,,,,,,,,,,,,,,,,,,,,,,,,,,,,,,,,,,,,,,,,,,,,,,,,,20,Female,20,001,2021_Mar_09_2210,cal_abstract,2020.2.4,60.192742577976475,
,Fix1,stimuli/Wealth/26.jpg,left,,,,,,,,,,,0,125,125,125,,,,,,,,,,,,,,,,,,,,,,,,,,,,,,,,,,,339.4009144549782,None,339.4009144549782,None,left,1,1.3136019069934264,339.4009144549782,None,1,340.73359574200003,None,,,,,,,,,,,,,,,,,,,,,,,,,,,,,,,,,,,,,,,,,,,,,,,,,,,,,,,,,,,,,,,,,,,20,Female,20,001,2021_Mar_09_2210,cal_abstract,2020.2.4,60.192742577976475,
,Fix1,stimuli/Wealth/32.jpg,left,,,,,,,,,,,0,126,126,126,,,,,,,,,,,,,,,,,,,,,,,,,,,,,,,,,,,341.5007104979886,None,341.5007104979886,None,left,1,0.5529331669968087,341.5007104979886,None,1,342.0834370550001,None,,,,,,,,,,,,,,,,,,,,,,,,,,,,,,,,,,,,,,,,,,,,,,,,,,,,,,,,,,,,,,,,,,,20,Female,20,001,2021_Mar_09_2210,cal_abstract,2020.2.4,60.192742577976475,
,Cond,stimuli/Healthy/55.jpg,right,,,,,,,,,,,0,127,127,127,,,,,,,,,,,,,,,,,,,,,,,,,,,,,,,,,,,342.8514349469915,None,342.8514349469915,None,right,1,0.8120718650170602,342.8514349469915,None,1,343.6837135980022,None,,,,,,,,,,,,,,,,,,,,,,,,,,,,,,,,,,,,,,,,,,,,,,,,,,,,,,,,,,,,,,,,,,,20,Female,20,001,2021_Mar_09_2210,cal_abstract,2020.2.4,60.192742577976475,
,Fix2,stimuli/Small/35.jpg,right,,,,,,,,,,,0,128,128,128,,,,,,,,,,,,,,,,,,,,,,,,,,,,,,,,,,,344.4516844089958,None,344.4516844089958,None,right,1,0.7367932149791159,344.4516844089958,None,1,345.2173195789801,None,,,,,,,,,,,,,,,,,,,,,,,,,,,,,,,,,,,,,,,,,,,,,,,,,,,,,,,,,,,,,,,,,,,20,Female,20,001,2021_Mar_09_2210,cal_abstract,2020.2.4,60.192742577976475,
,Fix1,stimuli/Wealth/10.jpg,left,,,,,,,,,,,0,129,129,129,,,,,,,,,,,,,,,,,,,,,,,,,,,,,,,,,,,346.00075564699364,None,346.00075564699364,None,left,1,0.8025070889852941,346.00075564699364,None,1,346.8337412949768,None,,,,,,,,,,,,,,,,,,,,,,,,,,,,,,,,,,,,,,,,,,,,,,,,,,,,,,,,,,,,,,,,,,,20,Female,20,001,2021_Mar_09_2210,cal_abstract,2020.2.4,60.192742577976475,
,Cond,stimuli/Healthy/10.jpg,right,,,,,,,,,,,0,130,130,130,,,,,,,,,,,,,,,,,,,,,,,,,,,,,,,,,,,347.6037103419949,None,347.6037103419949,None,left,0,4.517063474981114,347.6037103419949,None,0,352.150408771995,None,,,,,,,,,,,,,,,,,,,,,,,,,,,,,,,,,,,,,,,,,,,,,,,,,,,,,,,,,,,,,,,,,,,20,Female,20,001,2021_Mar_09_2210,cal_abstract,2020.2.4,60.192742577976475,
,Fix1,stimuli/Wealth/40.jpg,left,,,,,,,,,,,0,131,131,131,,,,,,,,,,,,,,,,,,,,,,,,,,,,,,,,,,,352.93415963600273,None,352.93415963600273,None,left,1,0.5447544909839053,352.93415963600273,None,1,353.50023112498457,None,,,,,,,,,,,,,,,,,,,,,,,,,,,,,,,,,,,,,,,,,,,,,,,,,,,,,,,,,,,,,,,,,,,20,Female,20,001,2021_Mar_09_2210,cal_abstract,2020.2.4,60.192742577976475,
,Fix2,stimuli/Small/6.jpg,right,,,,,,,,,,,0,132,132,132,,,,,,,,,,,,,,,,,,,,,,,,,,,,,,,,,,,354.2697829520039,None,354.2697829520039,None,right,1,0.7300689760013483,354.2697829520039,None,1,355.01693462298135,None,,,,,,,,,,,,,,,,,,,,,,,,,,,,,,,,,,,,,,,,,,,,,,,,,,,,,,,,,,,,,,,,,,,20,Female,20,001,2021_Mar_09_2210,cal_abstract,2020.2.4,60.192742577976475,
,Cond,stimuli/Healthy/12.jpg,left,,,,,,,,,,,0,133,133,133,,,,,,,,,,,,,,,,,,,,,,,,,,,,,,,,,,,355.7877439750009,None,355.7877439750009,None,left,1,1.7750787870027125,355.7877439750009,None,1,357.5840436249855,None,,,,,,,,,,,,,,,,,,,,,,,,,,,,,,,,,,,,,,,,,,,,,,,,,,,,,,,,,,,,,,,,,,,20,Female,20,001,2021_Mar_09_2210,cal_abstract,2020.2.4,60.192742577976475,
,Fix2,stimuli/Small/2.jpg,right,,,,,,,,,,,0,134,134,134,,,,,,,,,,,,,,,,,,,,,,,,,,,,,,,,,,,358.35318335398915,None,358.35318335398915,None,right,1,0.6886893960181624,358.35318335398915,None,1,359.0668758099782,None,,,,,,,,,,,,,,,,,,,,,,,,,,,,,,,,,,,,,,,,,,,,,,,,,,,,,,,,,,,,,,,,,,,20,Female,20,001,2021_Mar_09_2210,cal_abstract,2020.2.4,60.192742577976475,
,Fix1,stimuli/Wealth/34.jpg,left,,,,,,,,,,,0,135,135,135,,,,,,,,,,,,,,,,,,,,,,,,,,,,,,,,,,,359.83754031098215,None,359.83754031098215,None,left,1,0.914074578002328,359.83754031098215,None,1,360.7835797150037,None,,,,,,,,,,,,,,,,,,,,,,,,,,,,,,,,,,,,,,,,,,,,,,,,,,,,,,,,,,,,,,,,,,,20,Female,20,001,2021_Mar_09_2210,cal_abstract,2020.2.4,60.192742577976475,
,Cond,stimuli/Healthy/14.jpg,right,,,,,,,,,,,0,136,136,136,,,,,,,,,,,,,,,,,,,,,,,,,,,,,,,,,,,361.55140343197854,None,361.55140343197854,None,left,0,3.442044975992758,361.55140343197854,None,0,365.0174847290036,None,,,,,,,,,,,,,,,,,,,,,,,,,,,,,,,,,,,,,,,,,,,,,,,,,,,,,,,,,,,,,,,,,,,20,Female,20,001,2021_Mar_09_2210,cal_abstract,2020.2.4,60.192742577976475,
,Fix2,stimuli/Small/3.jpg,right,,,,,,,,,,,0,137,137,137,,,,,,,,,,,,,,,,,,,,,,,,,,,,,,,,,,,365.78386298398254,None,365.78386298398254,None,right,1,1.0042463610006962,365.78386298398254,None,1,366.8175632880011,None,,,,,,,,,,,,,,,,,,,,,,,,,,,,,,,,,,,,,,,,,,,,,,,,,,,,,,,,,,,,,,,,,,,20,Female,20,001,2021_Mar_09_2210,cal_abstract,2020.2.4,60.192742577976475,
,Cond,stimuli/Healthy/3.jpg,left,,,,,,,,,,,0,138,138,138,,,,,,,,,,,,,,,,,,,,,,,,,,,,,,,,,,,367.58624704999966,None,367.58624704999966,None,left,1,2.556769107992295,367.58624704999966,None,1,370.16728331299964,None,,,,,,,,,,,,,,,,,,,,,,,,,,,,,,,,,,,,,,,,,,,,,,,,,,,,,,,,,,,,,,,,,,,20,Female,20,001,2021_Mar_09_2210,cal_abstract,2020.2.4,60.192742577976475,
,Fix2,stimuli/Small/4.jpg,right,,,,,,,,,,,0,139,139,139,,,,,,,,,,,,,,,,,,,,,,,,,,,,,,,,,,,370.93494924300467,None,370.93494924300467,None,right,1,0.6395356159773655,370.93494924300467,None,1,371.59947174499393,None,,,,,,,,,,,,,,,,,,,,,,,,,,,,,,,,,,,,,,,,,,,,,,,,,,,,,,,,,,,,,,,,,,,20,Female,20,001,2021_Mar_09_2210,cal_abstract,2020.2.4,60.192742577976475,
,Fix2,stimuli/Small/25.jpg,right,,,,,,,,,,,0,140,140,140,,,,,,,,,,,,,,,,,,,,,,,,,,,,,,,,,,,372.3839444750047,None,372.3839444750047,None,left,0,0.5663569470052607,372.3839444750047,None,0,372.96728992200224,None,,,,,,,,,,,,,,,,,,,,,,,,,,,,,,,,,,,,,,,,,,,,,,,,,,,,,,,,,,,,,,,,,,,20,Female,20,001,2021_Mar_09_2210,cal_abstract,2020.2.4,60.192742577976475,
,Cond,stimuli/Healthy/21.jpg,left,,,,,,,,,,,0,141,141,141,,,,,,,,,,,,,,,,,,,,,,,,,,,,,,,,,,,373.7506739810051,None,373.7506739810051,None,left,1,5.880944360978901,373.7506739810051,None,1,379.6517132569861,None,,,,,,,,,,,,,,,,,,,,,,,,,,,,,,,,,,,,,,,,,,,,,,,,,,,,,,,,,,,,,,,,,,,20,Female,20,001,2021_Mar_09_2210,cal_abstract,2020.2.4,60.192742577976475,
,Cond,stimuli/Healthy/67.jpg,right,,,,,,,,,,,0,142,142,142,,,,,,,,,,,,,,,,,,,,,,,,,,,,,,,,,,,380.4355177169782,None,380.4355177169782,None,right,1,2.5590390260040294,380.4355177169782,None,1,383.0172372649831,None,,,,,,,,,,,,,,,,,,,,,,,,,,,,,,,,,,,,,,,,,,,,,,,,,,,,,,,,,,,,,,,,,,,20,Female,20,001,2021_Mar_09_2210,cal_abstract,2020.2.4,60.192742577976475,
,Fix2,stimuli/Small/50.jpg,right,,,,,,,,,,,0,143,143,143,,,,,,,,,,,,,,,,,,,,,,,,,,,,,,,,,,,383.7841156759823,None,383.7841156759823,None,right,1,0.7331700139911845,383.7841156759823,None,1,384.5333141279989,None,,,,,,,,,,,,,,,,,,,,,,,,,,,,,,,,,,,,,,,,,,,,,,,,,,,,,,,,,,,,,,,,,,,20,Female,20,001,2021_Mar_09_2210,cal_abstract,2020.2.4,60.192742577976475,
,Fix1,stimuli/Wealth/45.jpg,left,,,,,,,,,,,0,144,144,144,,,,,,,,,,,,,,,,,,,,,,,,,,,,,,,,,,,385.30482842499623,None,385.30482842499623,None,left,1,0.5143307189864572,385.30482842499623,None,1,385.8495135399862,None,,,,,,,,,,,,,,,,,,,,,,,,,,,,,,,,,,,,,,,,,,,,,,,,,,,,,,,,,,,,,,,,,,,20,Female,20,001,2021_Mar_09_2210,cal_abstract,2020.2.4,60.192742577976475,
,Fix2,stimuli/Small/16.jpg,right,,,,,,,,,,,0,145,145,145,,,,,,,,,,,,,,,,,,,,,,,,,,,,,,,,,,,386.6202504889807,None,386.6202504889807,None,right,1,0.7471751839912031,386.6202504889807,None,1,387.4002240760019,None,,,,,,,,,,,,,,,,,,,,,,,,,,,,,,,,,,,,,,,,,,,,,,,,,,,,,,,,,,,,,,,,,,,20,Female,20,001,2021_Mar_09_2210,cal_abstract,2020.2.4,60.192742577976475,
,Fix1,stimuli/Wealth/51.jpg,left,,,,,,,,,,,0,146,146,146,,,,,,,,,,,,,,,,,,,,,,,,,,,,,,,,,,,388.1677861159842,None,388.1677861159842,None,left,1,0.865406355005689,388.1677861159842,None,1,389.0503386929922,None,,,,,,,,,,,,,,,,,,,,,,,,,,,,,,,,,,,,,,,,,,,,,,,,,,,,,,,,,,,,,,,,,,,20,Female,20,001,2021_Mar_09_2210,cal_abstract,2020.2.4,60.192742577976475,
,Fix1,stimuli/Wealth/6.jpg,left,,,,,,,,,,,0,147,147,147,,,,,,,,,,,,,,,,,,,,,,,,,,,,,,,,,,,389.81953892100137,None,389.81953892100137,None,left,1,0.9835379240103066,389.81953892100137,None,1,390.83380251500057,None,,,,,,,,,,,,,,,,,,,,,,,,,,,,,,,,,,,,,,,,,,,,,,,,,,,,,,,,,,,,,,,,,,,20,Female,20,001,2021_Mar_09_2210,cal_abstract,2020.2.4,60.192742577976475,
,Fix2,stimuli/Small/59.jpg,right,,,,,,,,,,,0,148,148,148,,,,,,,,,,,,,,,,,,,,,,,,,,,,,,,,,,,391.60127516600187,None,391.60127516600187,None,right,1,0.8627115800045431,391.60127516600187,None,1,392.4832401009917,None,,,,,,,,,,,,,,,,,,,,,,,,,,,,,,,,,,,,,,,,,,,,,,,,,,,,,,,,,,,,,,,,,,,20,Female,20,001,2021_Mar_09_2210,cal_abstract,2020.2.4,60.192742577976475,
,Fix2,stimuli/Small/29.jpg,right,,,,,,,,,,,0,149,149,149,,,,,,,,,,,,,,,,,,,,,,,,,,,,,,,,,,,393.2503733789781,None,393.2503733789781,None,right,1,1.1735761949967127,393.2503733789781,None,1,394.44917275599437,None,,,,,,,,,,,,,,,,,,,,,,,,,,,,,,,,,,,,,,,,,,,,,,,,,,,,,,,,,,,,,,,,,,,20,Female,20,001,2021_Mar_09_2210,cal_abstract,2020.2.4,60.192742577976475,
,Fix2,stimuli/Small/38.jpg,right,,,,,,,,,,,0,150,150,150,,,,,,,,,,,,,,,,,,,,,,,,,,,,,,,,,,,395.2330028019787,None,395.2330028019787,None,left,0,0.8499565230158623,395.2330028019787,None,0,396.10030020499835,None,,,,,,,,,,,,,,,,,,,,,,,,,,,,,,,,,,,,,,,,,,,,,,,,,,,,,,,,,,,,,,,,,,,20,Female,20,001,2021_Mar_09_2210,cal_abstract,2020.2.4,60.192742577976475,
,Fix1,stimuli/Wealth/59.jpg,left,,,,,,,,,,,0,151,151,151,,,,,,,,,,,,,,,,,,,,,,,,,,,,,,,,,,,396.8704386469908,None,396.8704386469908,None,left,1,3.23872533798567,396.8704386469908,None,1,400.1325737379957,None,,,,,,,,,,,,,,,,,,,,,,,,,,,,,,,,,,,,,,,,,,,,,,,,,,,,,,,,,,,,,,,,,,,20,Female,20,001,2021_Mar_09_2210,cal_abstract,2020.2.4,60.192742577976475,
,Fix2,stimuli/Small/23.jpg,right,,,,,,,,,,,0,152,152,152,,,,,,,,,,,,,,,,,,,,,,,,,,,,,,,,,,,400.89982040200266,None,400.89982040200266,None,right,1,4.555598128994461,400.89982040200266,None,1,405.48278910299996,None,,,,,,,,,,,,,,,,,,,,,,,,,,,,,,,,,,,,,,,,,,,,,,,,,,,,,,,,,,,,,,,,,,,20,Female,20,001,2021_Mar_09_2210,cal_abstract,2020.2.4,60.192742577976475,
,Fix1,stimuli/Wealth/1.jpg,left,,,,,,,,,,,0,153,153,153,,,,,,,,,,,,,,,,,,,,,,,,,,,,,,,,,,,406.26677740798914,None,406.26677740798914,None,left,1,0.8500086709973402,406.26677740798914,None,1,407.13328937999904,None,,,,,,,,,,,,,,,,,,,,,,,,,,,,,,,,,,,,,,,,,,,,,,,,,,,,,,,,,,,,,,,,,,,20,Female,20,001,2021_Mar_09_2210,cal_abstract,2020.2.4,60.192742577976475,
,Cond,stimuli/Healthy/42.jpg,right,,,,,,,,,,,0,154,154,154,,,,,,,,,,,,,,,,,,,,,,,,,,,,,,,,,,,407.90235418398515,None,407.90235418398515,None,right,1,1.281268569000531,407.90235418398515,None,1,409.2163603939989,None,,,,,,,,,,,,,,,,,,,,,,,,,,,,,,,,,,,,,,,,,,,,,,,,,,,,,,,,,,,,,,,,,,,20,Female,20,001,2021_Mar_09_2210,cal_abstract,2020.2.4,60.192742577976475,
,Cond,stimuli/Healthy/65.jpg,left,,,,,,,,,,,0,155,155,155,,,,,,,,,,,,,,,,,,,,,,,,,,,,,,,,,,,409.9865010979993,None,409.9865010979993,None,left,1,1.1941692240070552,409.9865010979993,None,1,411.199391948001,None,,,,,,,,,,,,,,,,,,,,,,,,,,,,,,,,,,,,,,,,,,,,,,,,,,,,,,,,,,,,,,,,,,,20,Female,20,001,2021_Mar_09_2210,cal_abstract,2020.2.4,60.192742577976475,
,Cond,stimuli/Healthy/23.jpg,right,,,,,,,,,,,0,156,156,156,,,,,,,,,,,,,,,,,,,,,,,,,,,,,,,,,,,411.96689994700137,None,411.96689994700137,None,right,1,0.8817683800007217,411.96689994700137,None,1,412.8662947489938,None,,,,,,,,,,,,,,,,,,,,,,,,,,,,,,,,,,,,,,,,,,,,,,,,,,,,,,,,,,,,,,,,,,,20,Female,20,001,2021_Mar_09_2210,cal_abstract,2020.2.4,60.192742577976475,
,Fix1,stimuli/Wealth/39.jpg,left,,,,,,,,,,,0,157,157,157,,,,,,,,,,,,,,,,,,,,,,,,,,,,,,,,,,,413.6337563879788,None,413.6337563879788,None,left,1,0.7417890779906884,413.6337563879788,None,1,414.3996473099978,None,,,,,,,,,,,,,,,,,,,,,,,,,,,,,,,,,,,,,,,,,,,,,,,,,,,,,,,,,,,,,,,,,,,20,Female,20,001,2021_Mar_09_2210,cal_abstract,2020.2.4,60.192742577976475,
,Fix1,stimuli/Wealth/47.jpg,left,,,,,,,,,,,0,158,158,158,,,,,,,,,,,,,,,,,,,,,,,,,,,,,,,,,,,415.16935354997986,None,415.16935354997986,None,left,1,1.2692845769925043,415.16935354997986,None,1,416.4663982169877,None,,,,,,,,,,,,,,,,,,,,,,,,,,,,,,,,,,,,,,,,,,,,,,,,,,,,,,,,,,,,,,,,,,,20,Female,20,001,2021_Mar_09_2210,cal_abstract,2020.2.4,60.192742577976475,
,Cond,stimuli/Healthy/35.jpg,right,,,,,,,,,,,0,159,159,159,,,,,,,,,,,,,,,,,,,,,,,,,,,,,,,,,,,417.2351291409868,None,417.2351291409868,None,right,1,1.0055881060252432,417.2351291409868,None,1,418.2655558839906,None,,,,,,,,,,,,,,,,,,,,,,,,,,,,,,,,,,,,,,,,,,,,,,,,,,,,,,,,,,,,,,,,,,,20,Female,20,001,2021_Mar_09_2210,cal_abstract,2020.2.4,60.192742577976475,
,Fix2,stimuli/Small/28.jpg,right,,,,,,,,,,,0,160,160,160,,,,,,,,,,,,,,,,,,,,,,,,,,,,,,,,,,,419.03447908197995,None,419.03447908197995,None,right,1,1.317836141999578,419.03447908197995,None,1,420.3827407939825,None,,,,,,,,,,,,,,,,,,,,,,,,,,,,,,,,,,,,,,,,,,,,,,,,,,,,,,,,,,,,,,,,,,,20,Female,20,001,2021_Mar_09_2210,cal_abstract,2020.2.4,60.192742577976475,
,Fix1,stimuli/Wealth/3.jpg,left,,,,,,,,,,,0,161,161,161,,,,,,,,,,,,,,,,,,,,,,,,,,,,,,,,,,,421.1497239759774,None,421.1497239759774,None,left,1,0.8898228530015331,421.1497239759774,None,1,422.0658012899803,None,,,,,,,,,,,,,,,,,,,,,,,,,,,,,,,,,,,,,,,,,,,,,,,,,,,,,,,,,,,,,,,,,,,20,Female,20,001,2021_Mar_09_2210,cal_abstract,2020.2.4,60.192742577976475,
,Cond,stimuli/Healthy/49.jpg,right,,,,,,,,,,,0,162,162,162,,,,,,,,,,,,,,,,,,,,,,,,,,,,,,,,,,,422.8326390979928,None,422.8326390979928,None,right,1,0.9738693289982621,422.8326390979928,None,1,423.8328498019837,None,,,,,,,,,,,,,,,,,,,,,,,,,,,,,,,,,,,,,,,,,,,,,,,,,,,,,,,,,,,,,,,,,,,20,Female,20,001,2021_Mar_09_2210,cal_abstract,2020.2.4,60.192742577976475,
,Fix1,stimuli/Wealth/42.jpg,left,,,,,,,,,,,0,163,163,163,,,,,,,,,,,,,,,,,,,,,,,,,,,,,,,,,,,424.6058921609947,None,424.6058921609947,None,left,1,1.0522498560021631,424.6058921609947,None,1,425.68261811099364,None,,,,,,,,,,,,,,,,,,,,,,,,,,,,,,,,,,,,,,,,,,,,,,,,,,,,,,,,,,,,,,,,,,,20,Female,20,001,2021_Mar_09_2210,cal_abstract,2020.2.4,60.192742577976475,
,Fix2,stimuli/Small/42.jpg,right,,,,,,,,,,,0,164,164,164,,,,,,,,,,,,,,,,,,,,,,,,,,,,,,,,,,,426.4493335970037,None,426.4493335970037,None,right,1,0.8420854269934352,426.4493335970037,None,1,427.31556720199296,None,,,,,,,,,,,,,,,,,,,,,,,,,,,,,,,,,,,,,,,,,,,,,,,,,,,,,,,,,,,,,,,,,,,20,Female,20,001,2021_Mar_09_2210,cal_abstract,2020.2.4,60.192742577976475,
,Fix2,stimuli/Small/15.jpg,right,,,,,,,,,,,0,165,165,165,,,,,,,,,,,,,,,,,,,,,,,,,,,,,,,,,,,428.08597448599176,None,428.08597448599176,None,right,1,3.047739318019012,428.08597448599176,None,1,431.16569168897695,None,,,,,,,,,,,,,,,,,,,,,,,,,,,,,,,,,,,,,,,,,,,,,,,,,,,,,,,,,,,,,,,,,,,20,Female,20,001,2021_Mar_09_2210,cal_abstract,2020.2.4,60.192742577976475,
,Fix2,stimuli/Small/32.jpg,right,,,,,,,,,,,0,166,166,166,,,,,,,,,,,,,,,,,,,,,,,,,,,,,,,,,,,431.9358232119994,None,431.9358232119994,None,right,1,0.6987595619866624,431.9358232119994,None,1,432.6656191079819,None,,,,,,,,,,,,,,,,,,,,,,,,,,,,,,,,,,,,,,,,,,,,,,,,,,,,,,,,,,,,,,,,,,,20,Female,20,001,2021_Mar_09_2210,cal_abstract,2020.2.4,60.192742577976475,
,Cond,stimuli/Healthy/53.jpg,left,,,,,,,,,,,0,167,167,167,,,,,,,,,,,,,,,,,,,,,,,,,,,,,,,,,,,433.4352431180014,None,433.4352431180014,None,left,1,1.655507296003634,433.4352431180014,None,1,435.1156280389987,None,,,,,,,,,,,,,,,,,,,,,,,,,,,,,,,,,,,,,,,,,,,,,,,,,,,,,,,,,,,,,,,,,,,20,Female,20,001,2021_Mar_09_2210,cal_abstract,2020.2.4,60.192742577976475,
,Cond,stimuli/Healthy/20.jpg,right,,,,,,,,,,,0,168,168,168,,,,,,,,,,,,,,,,,,,,,,,,,,,,,,,,,,,435.8827112549916,None,435.8827112549916,None,right,1,0.8100092160166241,435.8827112549916,None,1,436.71552241398604,None,,,,,,,,,,,,,,,,,,,,,,,,,,,,,,,,,,,,,,,,,,,,,,,,,,,,,,,,,,,,,,,,,,,20,Female,20,001,2021_Mar_09_2210,cal_abstract,2020.2.4,60.192742577976475,
,Fix1,stimuli/Wealth/29.jpg,left,,,,,,,,,,,0,169,169,169,,,,,,,,,,,,,,,,,,,,,,,,,,,,,,,,,,,437.4820541459776,None,437.4820541459776,None,left,1,0.893568043014966,437.4820541459776,None,1,438.39915810499224,None,,,,,,,,,,,,,,,,,,,,,,,,,,,,,,,,,,,,,,,,,,,,,,,,,,,,,,,,,,,,,,,,,,,20,Female,20,001,2021_Mar_09_2210,cal_abstract,2020.2.4,60.192742577976475,
,Cond,stimuli/Healthy/25.jpg,right,,,,,,,,,,,0,170,170,170,,,,,,,,,,,,,,,,,,,,,,,,,,,,,,,,,,,439.18299405198195,None,439.18299405198195,None,right,1,0.9653542769956402,439.18299405198195,None,1,440.16600207498414,None,,,,,,,,,,,,,,,,,,,,,,,,,,,,,,,,,,,,,,,,,,,,,,,,,,,,,,,,,,,,,,,,,,,20,Female,20,001,2021_Mar_09_2210,cal_abstract,2020.2.4,60.192742577976475,
,Fix2,stimuli/Small/51.jpg,right,,,,,,,,,,,0,171,171,171,,,,,,,,,,,,,,,,,,,,,,,,,,,,,,,,,,,440.9333544340043,None,440.9333544340043,None,right,1,0.7440472090092953,440.9333544340043,None,1,441.6983631239855,None,,,,,,,,,,,,,,,,,,,,,,,,,,,,,,,,,,,,,,,,,,,,,,,,,,,,,,,,,,,,,,,,,,,20,Female,20,001,2021_Mar_09_2210,cal_abstract,2020.2.4,60.192742577976475,
,Fix2,stimuli/Small/49.jpg,right,,,,,,,,,,,0,172,172,172,,,,,,,,,,,,,,,,,,,,,,,,,,,,,,,,,,,442.4683757159801,None,442.4683757159801,None,right,1,0.820200735994149,442.4683757159801,None,1,443.3156210150046,None,,,,,,,,,,,,,,,,,,,,,,,,,,,,,,,,,,,,,,,,,,,,,,,,,,,,,,,,,,,,,,,,,,,20,Female,20,001,2021_Mar_09_2210,cal_abstract,2020.2.4,60.192742577976475,
,Cond,stimuli/Healthy/6.jpg,left,,,,,,,,,,,0,173,173,173,,,,,,,,,,,,,,,,,,,,,,,,,,,,,,,,,,,444.0852636350028,None,444.0852636350028,None,left,1,3.295418449997669,444.0852636350028,None,1,447.39890640298836,None,,,,,,,,,,,,,,,,,,,,,,,,,,,,,,,,,,,,,,,,,,,,,,,,,,,,,,,,,,,,,,,,,,,20,Female,20,001,2021_Mar_09_2210,cal_abstract,2020.2.4,60.192742577976475,
,Fix2,stimuli/Small/27.jpg,right,,,,,,,,,,,0,174,174,174,,,,,,,,,,,,,,,,,,,,,,,,,,,,,,,,,,,448.1667441430036,None,448.1667441430036,None,right,1,0.9437360969895963,448.1667441430036,None,1,449.13268381598755,None,,,,,,,,,,,,,,,,,,,,,,,,,,,,,,,,,,,,,,,,,,,,,,,,,,,,,,,,,,,,,,,,,,,20,Female,20,001,2021_Mar_09_2210,cal_abstract,2020.2.4,60.192742577976475,
,Fix1,stimuli/Wealth/58.jpg,left,,,,,,,,,,,0,175,175,175,,,,,,,,,,,,,,,,,,,,,,,,,,,,,,,,,,,449.9160151099786,None,449.9160151099786,None,left,1,0.8212134990026243,449.9160151099786,None,1,450.7654670100019,None,,,,,,,,,,,,,,,,,,,,,,,,,,,,,,,,,,,,,,,,,,,,,,,,,,,,,,,,,,,,,,,,,,,20,Female,20,001,2021_Mar_09_2210,cal_abstract,2020.2.4,60.192742577976475,
,Fix1,stimuli/Wealth/20.jpg,left,,,,,,,,,,,0,176,176,176,,,,,,,,,,,,,,,,,,,,,,,,,,,,,,,,,,,451.53391289297724,None,451.53391289297724,None,left,1,0.9942136960162316,451.53391289297724,None,1,452.54879009199794,None,,,,,,,,,,,,,,,,,,,,,,,,,,,,,,,,,,,,,,,,,,,,,,,,,,,,,,,,,,,,,,,,,,,20,Female,20,001,2021_Mar_09_2210,cal_abstract,2020.2.4,60.192742577976475,
,Cond,stimuli/Healthy/51.jpg,right,,,,,,,,,,,0,177,177,177,,,,,,,,,,,,,,,,,,,,,,,,,,,,,,,,,,,453.31815350599936,None,453.31815350599936,None,right,1,0.7371960759919602,453.31815350599936,None,1,454.0821240019868,None,,,,,,,,,,,,,,,,,,,,,,,,,,,,,,,,,,,,,,,,,,,,,,,,,,,,,,,,,,,,,,,,,,,20,Female,20,001,2021_Mar_09_2210,cal_abstract,2020.2.4,60.192742577976475,
,Cond,stimuli/Healthy/58.jpg,left,,,,,,,,,,,0,178,178,178,,,,,,,,,,,,,,,,,,,,,,,,,,,,,,,,,,,454.85038206199533,None,454.85038206199533,None,left,1,2.065943788998993,454.85038206199533,None,1,456.94846144499024,None,,,,,,,,,,,,,,,,,,,,,,,,,,,,,,,,,,,,,,,,,,,,,,,,,,,,,,,,,,,,,,,,,,,20,Female,20,001,2021_Mar_09_2210,cal_abstract,2020.2.4,60.192742577976475,
,Cond,stimuli/Healthy/54.jpg,right,,,,,,,,,,,0,179,179,179,,,,,,,,,,,,,,,,,,,,,,,,,,,,,,,,,,,457.7177054429776,None,457.7177054429776,None,right,1,1.0594149070093408,457.7177054429776,None,1,458.7991858070018,None,,,,,,,,,,,,,,,,,,,,,,,,,,,,,,,,,,,,,,,,,,,,,,,,,,,,,,,,,,,,,,,,,,,20,Female,20,001,2021_Mar_09_2210,cal_abstract,2020.2.4,60.192742577976475,
,,,,,,,,,,,,,,,,,,,,,,,,,,,,,,,,,,,,,,,,,,,,,,,,,,,,,,,,,,,,,,,,459.549056060001,None,c,4.569391020981129,459.549056060001,None,,,,,,,,,,,,,,,,,,,,,,,,,,,,,,,,,,,,,,,,,,,,,,,,,,,,,,,,,,,,,20,Female,20,001,2021_Mar_09_2210,cal_abstract,2020.2.4,60.192742577976475,
,,,,,,,,,,,,,,,,,,,,,,,,,,,,,,,,,,,,,,,,,,,,,,,,,,,,,,,,,,,,,,,,,,,,,,464.15153568499954,None,464.15153568499954,None,return,10.089330927992705,464.15153568499954,None,,,,,,,,,,,,,,,,,,,,,,,,,,,,,,,,,,,,,,,,,,,,,,,,,,,,,20,Female,20,001,2021_Mar_09_2210,cal_abstract,2020.2.4,60.192742577976475,
,,,,,,,,,,,,,,,,,,,,,,,,,,,,,,,,,,,,,,,,,,,,,,,,,,,,,,,,,,,,,,,,,,,,,,,,,,,,,,474.2659070529917,None,474.2659070529917,None,s,1.5386223269742914,474.2659070529917,None,,,,,,,,,,,,,,,,,,,,,,,,,,,,,,,,,,,,,,,,,,,,,20,Female,20,001,2021_Mar_09_2210,cal_abstract,2020.2.4,60.192742577976475,
,,,,Fix2,stimuli/Soft/53.jpg,left,,,,,,,,,,,,0,0,0,0,,,,,,,,,,,,,,,,,,,,,,,,,,,,,,,,,,,,,,,,1,,,,,,,,,,,,,,,,,,,,,,,,,475.88207922599395,None,475.88207922599395,None,left,1,1.7611207209993154,475.88207922599395,None,477.6671817860042,None,,,,,,,,,,,,,,,,,,,,,,,,,,,,,,,,,,20,Female,20,001,2021_Mar_09_2210,cal_abstract,2020.2.4,60.192742577976475,
,,,,Fix2,stimuli/Soft/48.jpg,left,,,,,,,,,,,,0,1,1,1,,,,,,,,,,,,,,,,,,,,,,,,,,,,,,,,,,,,,,,,1,,,,,,,,,,,,,,,,,,,,,,,,,478.452664758981,None,478.452664758981,None,left,1,0.5716246460215189,478.452664758981,None,479.0487506329955,None,,,,,,,,,,,,,,,,,,,,,,,,,,,,,,,,,,20,Female,20,001,2021_Mar_09_2210,cal_abstract,2020.2.4,60.192742577976475,
,,,,Fix1,stimuli/Old/34.jpg,right,,,,,,,,,,,,0,2,2,2,,,,,,,,,,,,,,,,,,,,,,,,,,,,,,,,,,,,,,,,1,,,,,,,,,,,,,,,,,,,,,,,,,479.817761126993,None,479.817761126993,None,right,1,3.0121543089917395,479.817761126993,None,482.84795551598654,None,,,,,,,,,,,,,,,,,,,,,,,,,,,,,,,,,,20,Female,20,001,2021_Mar_09_2210,cal_abstract,2020.2.4,60.192742577976475,
,,,,Cond,stimuli/Dangerous/42.jpg,left,,,,,,,,,,,,0,3,3,3,,,,,,,,,,,,,,,,,,,,,,,,,,,,,,,,,,,,,,,,1,,,,,,,,,,,,,,,,,,,,,,,,,483.6195546279778,None,483.6195546279778,None,left,1,2.8715797790209763,483.6195546279778,None,486.5150030319928,None,,,,,,,,,,,,,,,,,,,,,,,,,,,,,,,,,,20,Female,20,001,2021_Mar_09_2210,cal_abstract,2020.2.4,60.192742577976475,
,,,,Cond,stimuli/Dangerous/53.jpg,right,,,,,,,,,,,,0,4,4,4,,,,,,,,,,,,,,,,,,,,,,,,,,,,,,,,,,,,,,,,1,,,,,,,,,,,,,,,,,,,,,,,,,487.2849967099901,None,487.2849967099901,None,right,1,1.3267349919769913,487.2849967099901,None,488.63169058799394,None,,,,,,,,,,,,,,,,,,,,,,,,,,,,,,,,,,20,Female,20,001,2021_Mar_09_2210,cal_abstract,2020.2.4,60.192742577976475,
,,,,Fix1,stimuli/Old/45.jpg,right,,,,,,,,,,,,0,5,5,5,,,,,,,,,,,,,,,,,,,,,,,,,,,,,,,,,,,,,,,,1,,,,,,,,,,,,,,,,,,,,,,,,,489.4148755729839,None,489.4148755729839,None,right,1,1.2507170049939305,489.4148755729839,None,490.6980656149972,None,,,,,,,,,,,,,,,,,,,,,,,,,,,,,,,,,,20,Female,20,001,2021_Mar_09_2210,cal_abstract,2020.2.4,60.192742577976475,
,,,,Cond,stimuli/Dangerous/56.jpg,left,,,,,,,,,,,,0,6,6,6,,,,,,,,,,,,,,,,,,,,,,,,,,,,,,,,,,,,,,,,1,,,,,,,,,,,,,,,,,,,,,,,,,491.4684479360003,None,491.4684479360003,None,left,1,1.1872399539861362,491.4684479360003,None,492.681535132986,None,,,,,,,,,,,,,,,,,,,,,,,,,,,,,,,,,,20,Female,20,001,2021_Mar_09_2210,cal_abstract,2020.2.4,60.192742577976475,
,,,,Fix1,stimuli/Old/11.jpg,right,,,,,,,,,,,,0,7,7,7,,,,,,,,,,,,,,,,,,,,,,,,,,,,,,,,,,,,,,,,1,,,,,,,,,,,,,,,,,,,,,,,,,493.44885139199323,None,493.44885139199323,None,right,1,3.8514813810179476,493.44885139199323,None,497.33163095798227,None,,,,,,,,,,,,,,,,,,,,,,,,,,,,,,,,,,20,Female,20,001,2021_Mar_09_2210,cal_abstract,2020.2.4,60.192742577976475,
,,,,Fix2,stimuli/Soft/52.jpg,left,,,,,,,,,,,,0,8,8,8,,,,,,,,,,,,,,,,,,,,,,,,,,,,,,,,,,,,,,,,1,,,,,,,,,,,,,,,,,,,,,,,,,498.09848648199113,None,498.09848648199113,None,left,1,0.7081477140018251,498.09848648199113,None,498.8316187039891,None,,,,,,,,,,,,,,,,,,,,,,,,,,,,,,,,,,20,Female,20,001,2021_Mar_09_2210,cal_abstract,2020.2.4,60.192742577976475,
,,,,Cond,stimuli/Dangerous/41.jpg,right,,,,,,,,,,,,0,9,9,9,,,,,,,,,,,,,,,,,,,,,,,,,,,,,,,,,,,,,,,,1,,,,,,,,,,,,,,,,,,,,,,,,,499.59865369598265,None,499.59865369598265,None,right,1,1.4348859279998578,499.59865369598265,None,501.06446017097915,None,,,,,,,,,,,,,,,,,,,,,,,,,,,,,,,,,,20,Female,20,001,2021_Mar_09_2210,cal_abstract,2020.2.4,60.192742577976475,
,,,,Fix2,stimuli/Soft/49.jpg,left,,,,,,,,,,,,0,10,10,10,,,,,,,,,,,,,,,,,,,,,,,,,,,,,,,,,,,,,,,,1,,,,,,,,,,,,,,,,,,,,,,,,,501.83255131499027,None,501.83255131499027,None,left,1,1.2742178539920133,501.83255131499027,None,503.13228037097724,None,,,,,,,,,,,,,,,,,,,,,,,,,,,,,,,,,,20,Female,20,001,2021_Mar_09_2210,cal_abstract,2020.2.4,60.192742577976475,
,,,,Cond,stimuli/Dangerous/15.jpg,right,,,,,,,,,,,,0,11,11,11,,,,,,,,,,,,,,,,,,,,,,,,,,,,,,,,,,,,,,,,1,,,,,,,,,,,,,,,,,,,,,,,,,503.9029409700015,None,503.9029409700015,None,right,1,0.9156193590024486,503.9029409700015,None,504.84851292998064,None,,,,,,,,,,,,,,,,,,,,,,,,,,,,,,,,,,20,Female,20,001,2021_Mar_09_2210,cal_abstract,2020.2.4,60.192742577976475,
,,,,Fix1,stimuli/Old/21.jpg,right,,,,,,,,,,,,0,12,12,12,,,,,,,,,,,,,,,,,,,,,,,,,,,,,,,,,,,,,,,,1,,,,,,,,,,,,,,,,,,,,,,,,,505.63241129298694,None,505.63241129298694,None,right,1,2.109068974998081,505.63241129298694,None,507.76462089800043,None,,,,,,,,,,,,,,,,,,,,,,,,,,,,,,,,,,20,Female,20,001,2021_Mar_09_2210,cal_abstract,2020.2.4,60.192742577976475,
,,,,Fix2,stimuli/Soft/22.jpg,left,,,,,,,,,,,,0,13,13,13,,,,,,,,,,,,,,,,,,,,,,,,,,,,,,,,,,,,,,,,1,,,,,,,,,,,,,,,,,,,,,,,,,508.5324575989798,None,508.5324575989798,None,left,1,1.2939792339748237,508.5324575989798,None,509.8477337019867,None,,,,,,,,,,,,,,,,,,,,,,,,,,,,,,,,,,20,Female,20,001,2021_Mar_09_2210,cal_abstract,2020.2.4,60.192742577976475,
,,,,Fix2,stimuli/Soft/32.jpg,left,,,,,,,,,,,,0,14,14,14,,,,,,,,,,,,,,,,,,,,,,,,,,,,,,,,,,,,,,,,1,,,,,,,,,,,,,,,,,,,,,,,,,510.63185894000344,None,510.63185894000344,None,left,1,0.8423662779969163,510.63185894000344,None,511.498539970984,None,,,,,,,,,,,,,,,,,,,,,,,,,,,,,,,,,,20,Female,20,001,2021_Mar_09_2210,cal_abstract,2020.2.4,60.192742577976475,
,,,,Fix1,stimuli/Old/33.jpg,right,,,,,,,,,,,,0,15,15,15,,,,,,,,,,,,,,,,,,,,,,,,,,,,,,,,,,,,,,,,1,,,,,,,,,,,,,,,,,,,,,,,,,512.26626810999,None,512.26626810999,None,right,1,1.4799140919931233,512.26626810999,None,513.7645965999982,None,,,,,,,,,,,,,,,,,,,,,,,,,,,,,,,,,,20,Female,20,001,2021_Mar_09_2210,cal_abstract,2020.2.4,60.192742577976475,
,,,,Cond,stimuli/Dangerous/30.jpg,left,,,,,,,,,,,,0,16,16,16,,,,,,,,,,,,,,,,,,,,,,,,,,,,,,,,,,,,,,,,1,,,,,,,,,,,,,,,,,,,,,,,,,514.5329609809851,None,514.5329609809851,None,left,1,1.183117898995988,514.5329609809851,None,515.7480124330032,None,,,,,,,,,,,,,,,,,,,,,,,,,,,,,,,,,,20,Female,20,001,2021_Mar_09_2210,cal_abstract,2020.2.4,60.192742577976475,
,,,,Fix2,stimuli/Soft/55.jpg,left,,,,,,,,,,,,0,17,17,17,,,,,,,,,,,,,,,,,,,,,,,,,,,,,,,,,,,,,,,,1,,,,,,,,,,,,,,,,,,,,,,,,,516.5140739039925,None,516.5140739039925,None,left,1,1.0083019720041193,516.5140739039925,None,517.5485618929961,None,,,,,,,,,,,,,,,,,,,,,,,,,,,,,,,,,,20,Female,20,001,2021_Mar_09_2210,cal_abstract,2020.2.4,60.192742577976475,
,,,,Fix1,stimuli/Old/22.jpg,right,,,,,,,,,,,,0,18,18,18,,,,,,,,,,,,,,,,,,,,,,,,,,,,,,,,,,,,,,,,1,,,,,,,,,,,,,,,,,,,,,,,,,518.3183007460029,None,518.3183007460029,None,right,1,0.9117391109757591,518.3183007460029,None,519.2484164329944,None,,,,,,,,,,,,,,,,,,,,,,,,,,,,,,,,,,20,Female,20,001,2021_Mar_09_2210,cal_abstract,2020.2.4,60.192742577976475,
,,,,Fix2,stimuli/Soft/33.jpg,left,,,,,,,,,,,,0,19,19,19,,,,,,,,,,,,,,,,,,,,,,,,,,,,,,,,,,,,,,,,1,,,,,,,,,,,,,,,,,,,,,,,,,520.0189830019954,None,520.0189830019954,None,left,1,1.2319104920024984,520.0189830019954,None,521.2808427879936,None,,,,,,,,,,,,,,,,,,,,,,,,,,,,,,,,,,20,Female,20,001,2021_Mar_09_2210,cal_abstract,2020.2.4,60.192742577976475,
,,,,Fix1,stimuli/Old/47.jpg,right,,,,,,,,,,,,0,20,20,20,,,,,,,,,,,,,,,,,,,,,,,,,,,,,,,,,,,,,,,,1,,,,,,,,,,,,,,,,,,,,,,,,,522.0475018970028,None,522.0475018970028,None,right,1,1.0545086589991115,522.0475018970028,None,523.1311160810001,None,,,,,,,,,,,,,,,,,,,,,,,,,,,,,,,,,,20,Female,20,001,2021_Mar_09_2210,cal_abstract,2020.2.4,60.192742577976475,
,,,,Fix2,stimuli/Soft/10.jpg,left,,,,,,,,,,,,0,21,21,21,,,,,,,,,,,,,,,,,,,,,,,,,,,,,,,,,,,,,,,,1,,,,,,,,,,,,,,,,,,,,,,,,,523.8986062659824,None,523.8986062659824,None,left,1,0.7473539679776877,523.8986062659824,None,524.6650005150004,None,,,,,,,,,,,,,,,,,,,,,,,,,,,,,,,,,,20,Female,20,001,2021_Mar_09_2210,cal_abstract,2020.2.4,60.192742577976475,
,,,,Cond,stimuli/Dangerous/7.jpg,right,,,,,,,,,,,,0,22,22,22,,,,,,,,,,,,,,,,,,,,,,,,,,,,,,,,,,,,,,,,1,,,,,,,,,,,,,,,,,,,,,,,,,525.4346410129801,None,525.4346410129801,None,right,1,0.9811414240102749,525.4346410129801,None,526.4477638299868,None,,,,,,,,,,,,,,,,,,,,,,,,,,,,,,,,,,20,Female,20,001,2021_Mar_09_2210,cal_abstract,2020.2.4,60.192742577976475,
,,,,Fix1,stimuli/Old/48.jpg,right,,,,,,,,,,,,0,23,23,23,,,,,,,,,,,,,,,,,,,,,,,,,,,,,,,,,,,,,,,,1,,,,,,,,,,,,,,,,,,,,,,,,,527.2163218850037,None,527.2163218850037,None,right,1,0.8114690159854945,527.2163218850037,None,528.0472393139789,None,,,,,,,,,,,,,,,,,,,,,,,,,,,,,,,,,,20,Female,20,001,2021_Mar_09_2210,cal_abstract,2020.2.4,60.192742577976475,
,,,,Cond,stimuli/Dangerous/27.jpg,left,,,,,,,,,,,,0,24,24,24,,,,,,,,,,,,,,,,,,,,,,,,,,,,,,,,,,,,,,,,1,,,,,,,,,,,,,,,,,,,,,,,,,528.8176918769896,None,528.8176918769896,None,left,1,1.1130137279978953,528.8176918769896,None,529.9481272099947,None,,,,,,,,,,,,,,,,,,,,,,,,,,,,,,,,,,20,Female,20,001,2021_Mar_09_2210,cal_abstract,2020.2.4,60.192742577976475,
,,,,Fix1,stimuli/Old/40.jpg,right,,,,,,,,,,,,0,25,25,25,,,,,,,,,,,,,,,,,,,,,,,,,,,,,,,,,,,,,,,,1,,,,,,,,,,,,,,,,,,,,,,,,,530.7319398009859,None,530.7319398009859,None,right,1,1.7388787360105198,530.7319398009859,None,532.4978447309986,None,,,,,,,,,,,,,,,,,,,,,,,,,,,,,,,,,,20,Female,20,001,2021_Mar_09_2210,cal_abstract,2020.2.4,60.192742577976475,
,,,,Fix1,stimuli/Old/14.jpg,right,,,,,,,,,,,,0,26,26,26,,,,,,,,,,,,,,,,,,,,,,,,,,,,,,,,,,,,,,,,1,,,,,,,,,,,,,,,,,,,,,,,,,533.2815595129796,None,533.2815595129796,None,right,1,2.3922190129815135,533.2815595129796,None,535.6981488809979,None,,,,,,,,,,,,,,,,,,,,,,,,,,,,,,,,,,20,Female,20,001,2021_Mar_09_2210,cal_abstract,2020.2.4,60.192742577976475,
,,,,Fix1,stimuli/Old/2.jpg,right,,,,,,,,,,,,0,27,27,27,,,,,,,,,,,,,,,,,,,,,,,,,,,,,,,,,,,,,,,,1,,,,,,,,,,,,,,,,,,,,,,,,,536.4683623489982,None,536.4683623489982,None,right,1,1.0810552359907888,536.4683623489982,None,537.58151171598,None,,,,,,,,,,,,,,,,,,,,,,,,,,,,,,,,,,20,Female,20,001,2021_Mar_09_2210,cal_abstract,2020.2.4,60.192742577976475,
,,,,Fix2,stimuli/Soft/13.jpg,left,,,,,,,,,,,,0,28,28,28,,,,,,,,,,,,,,,,,,,,,,,,,,,,,,,,,,,,,,,,1,,,,,,,,,,,,,,,,,,,,,,,,,538.3644128500018,None,538.3644128500018,None,left,1,1.0880183459958062,538.3644128500018,None,539.4808183069981,None,,,,,,,,,,,,,,,,,,,,,,,,,,,,,,,,,,20,Female,20,001,2021_Mar_09_2210,cal_abstract,2020.2.4,60.192742577976475,
,,,,Fix1,stimuli/Old/43.jpg,right,,,,,,,,,,,,0,29,29,29,,,,,,,,,,,,,,,,,,,,,,,,,,,,,,,,,,,,,,,,1,,,,,,,,,,,,,,,,,,,,,,,,,540.2507053519948,None,540.2507053519948,None,right,1,0.9616212149849162,540.2507053519948,None,541.2305735349946,None,,,,,,,,,,,,,,,,,,,,,,,,,,,,,,,,,,20,Female,20,001,2021_Mar_09_2210,cal_abstract,2020.2.4,60.192742577976475,
,,,,Cond,stimuli/Dangerous/6.jpg,left,,,,,,,,,,,,0,30,30,30,,,,,,,,,,,,,,,,,,,,,,,,,,,,,,,,,,,,,,,,1,,,,,,,,,,,,,,,,,,,,,,,,,541.9988114830048,None,541.9988114830048,None,left,1,0.8046894840081222,541.9988114830048,None,542.830466126994,None,,,,,,,,,,,,,,,,,,,,,,,,,,,,,,,,,,20,Female,20,001,2021_Mar_09_2210,cal_abstract,2020.2.4,60.192742577976475,
,,,,Fix2,stimuli/Soft/11.jpg,left,,,,,,,,,,,,0,31,31,31,,,,,,,,,,,,,,,,,,,,,,,,,,,,,,,,,,,,,,,,1,,,,,,,,,,,,,,,,,,,,,,,,,543.6146676759818,None,543.6146676759818,None,left,1,0.7835293649986852,543.6146676759818,None,544.4141544379818,None,,,,,,,,,,,,,,,,,,,,,,,,,,,,,,,,,,20,Female,20,001,2021_Mar_09_2210,cal_abstract,2020.2.4,60.192742577976475,
,,,,Cond,stimuli/Dangerous/12.jpg,right,,,,,,,,,,,,0,32,32,32,,,,,,,,,,,,,,,,,,,,,,,,,,,,,,,,,,,,,,,,1,,,,,,,,,,,,,,,,,,,,,,,,,545.1815528339939,None,545.1815528339939,None,right,1,0.874641556001734,545.1815528339939,None,546.0808628039958,None,,,,,,,,,,,,,,,,,,,,,,,,,,,,,,,,,,20,Female,20,001,2021_Mar_09_2210,cal_abstract,2020.2.4,60.192742577976475,
,,,,Fix2,stimuli/Soft/42.jpg,left,,,,,,,,,,,,0,33,33,33,,,,,,,,,,,,,,,,,,,,,,,,,,,,,,,,,,,,,,,,1,,,,,,,,,,,,,,,,,,,,,,,,,546.8495288599806,None,546.8495288599806,None,left,1,1.4036629140027799,546.8495288599806,None,548.2810966289835,None,,,,,,,,,,,,,,,,,,,,,,,,,,,,,,,,,,20,Female,20,001,2021_Mar_09_2210,cal_abstract,2020.2.4,60.192742577976475,
,,,,Fix1,stimuli/Old/36.jpg,right,,,,,,,,,,,,0,34,34,34,,,,,,,,,,,,,,,,,,,,,,,,,,,,,,,,,,,,,,,,1,,,,,,,,,,,,,,,,,,,,,,,,,549.0507614630042,None,549.0507614630042,None,right,1,0.673487471009139,549.0507614630042,None,549.7473135979963,None,,,,,,,,,,,,,,,,,,,,,,,,,,,,,,,,,,20,Female,20,001,2021_Mar_09_2210,cal_abstract,2020.2.4,60.192742577976475,
,,,,Fix1,stimuli/Old/0.jpg,right,,,,,,,,,,,,0,35,35,35,,,,,,,,,,,,,,,,,,,,,,,,,,,,,,,,,,,,,,,,1,,,,,,,,,,,,,,,,,,,,,,,,,550.5154907329998,None,550.5154907329998,None,right,1,3.8335560020059347,550.5154907329998,None,554.381006955984,None,,,,,,,,,,,,,,,,,,,,,,,,,,,,,,,,,,20,Female,20,001,2021_Mar_09_2210,cal_abstract,2020.2.4,60.192742577976475,
,,,,Cond,stimuli/Dangerous/13.jpg,left,,,,,,,,,,,,0,36,36,36,,,,,,,,,,,,,,,,,,,,,,,,,,,,,,,,,,,,,,,,1,,,,,,,,,,,,,,,,,,,,,,,,,555.1521986559965,None,555.1521986559965,None,left,1,0.9834879520058166,555.1521986559965,None,556.1641267759842,None,,,,,,,,,,,,,,,,,,,,,,,,,,,,,,,,,,20,Female,20,001,2021_Mar_09_2210,cal_abstract,2020.2.4,60.192742577976475,
,,,,Fix1,stimuli/Old/35.jpg,right,,,,,,,,,,,,0,37,37,37,,,,,,,,,,,,,,,,,,,,,,,,,,,,,,,,,,,,,,,,1,,,,,,,,,,,,,,,,,,,,,,,,,556.9483754079847,None,556.9483754079847,None,right,1,0.7260998809942976,556.9483754079847,None,557.6971297290002,None,,,,,,,,,,,,,,,,,,,,,,,,,,,,,,,,,,20,Female,20,001,2021_Mar_09_2210,cal_abstract,2020.2.4,60.192742577976475,
,,,,Fix1,stimuli/Old/38.jpg,right,,,,,,,,,,,,0,38,38,38,,,,,,,,,,,,,,,,,,,,,,,,,,,,,,,,,,,,,,,,1,,,,,,,,,,,,,,,,,,,,,,,,,558.4669263119868,None,558.4669263119868,None,right,1,1.0796308529970702,558.4669263119868,None,559.5646711449954,None,,,,,,,,,,,,,,,,,,,,,,,,,,,,,,,,,,20,Female,20,001,2021_Mar_09_2210,cal_abstract,2020.2.4,60.192742577976475,
,,,,Fix1,stimuli/Old/10.jpg,right,,,,,,,,,,,,0,39,39,39,,,,,,,,,,,,,,,,,,,,,,,,,,,,,,,,,,,,,,,,1,,,,,,,,,,,,,,,,,,,,,,,,,560.3337973829766,None,560.3337973829766,None,right,1,1.051766133023193,560.3337973829766,None,561.4143491619907,None,,,,,,,,,,,,,,,,,,,,,,,,,,,,,,,,,,20,Female,20,001,2021_Mar_09_2210,cal_abstract,2020.2.4,60.192742577976475,
,,,,Cond,stimuli/Dangerous/9.jpg,left,,,,,,,,,,,,0,40,40,40,,,,,,,,,,,,,,,,,,,,,,,,,,,,,,,,,,,,,,,,1,,,,,,,,,,,,,,,,,,,,,,,,,562.1826498750015,None,562.1826498750015,None,left,1,0.8337142709933687,562.1826498750015,None,563.0472087129892,None,,,,,,,,,,,,,,,,,,,,,,,,,,,,,,,,,,20,Female,20,001,2021_Mar_09_2210,cal_abstract,2020.2.4,60.192742577976475,
,,,,Cond,stimuli/Dangerous/8.jpg,right,,,,,,,,,,,,0,41,41,41,,,,,,,,,,,,,,,,,,,,,,,,,,,,,,,,,,,,,,,,1,,,,,,,,,,,,,,,,,,,,,,,,,563.8318099829776,None,563.8318099829776,None,right,1,1.4247920349880587,563.8318099829776,None,565.280956499977,None,,,,,,,,,,,,,,,,,,,,,,,,,,,,,,,,,,20,Female,20,001,2021_Mar_09_2210,cal_abstract,2020.2.4,60.192742577976475,
,,,,Fix2,stimuli/Soft/47.jpg,left,,,,,,,,,,,,0,42,42,42,,,,,,,,,,,,,,,,,,,,,,,,,,,,,,,,,,,,,,,,1,,,,,,,,,,,,,,,,,,,,,,,,,566.049815107981,None,566.049815107981,None,left,1,0.6154779669886921,566.049815107981,None,566.697934122989,None,,,,,,,,,,,,,,,,,,,,,,,,,,,,,,,,,,20,Female,20,001,2021_Mar_09_2210,cal_abstract,2020.2.4,60.192742577976475,
,,,,Fix2,stimuli/Soft/41.jpg,left,,,,,,,,,,,,0,43,43,43,,,,,,,,,,,,,,,,,,,,,,,,,,,,,,,,,,,,,,,,1,,,,,,,,,,,,,,,,,,,,,,,,,567.465539716999,None,567.465539716999,None,left,1,1.0276819840073586,567.465539716999,None,568.5137733559823,None,,,,,,,,,,,,,,,,,,,,,,,,,,,,,,,,,,20,Female,20,001,2021_Mar_09_2210,cal_abstract,2020.2.4,60.192742577976475,
,,,,Fix1,stimuli/Old/25.jpg,right,,,,,,,,,,,,0,44,44,44,,,,,,,,,,,,,,,,,,,,,,,,,,,,,,,,,,,,,,,,1,,,,,,,,,,,,,,,,,,,,,,,,,569.2848515049845,None,569.2848515049845,None,right,1,1.4123199190071318,569.2848515049845,None,570.7139334009844,None,,,,,,,,,,,,,,,,,,,,,,,,,,,,,,,,,,20,Female,20,001,2021_Mar_09_2210,cal_abstract,2020.2.4,60.192742577976475,
,,,,Fix1,stimuli/Old/54.jpg,right,,,,,,,,,,,,0,45,45,45,,,,,,,,,,,,,,,,,,,,,,,,,,,,,,,,,,,,,,,,1,,,,,,,,,,,,,,,,,,,,,,,,,571.484373202984,None,571.484373202984,None,right,1,0.6787937089975458,571.484373202984,None,572.180629223003,None,,,,,,,,,,,,,,,,,,,,,,,,,,,,,,,,,,20,Female,20,001,2021_Mar_09_2210,cal_abstract,2020.2.4,60.192742577976475,
,,,,Fix2,stimuli/Soft/44.jpg,left,,,,,,,,,,,,0,46,46,46,,,,,,,,,,,,,,,,,,,,,,,,,,,,,,,,,,,,,,,,1,,,,,,,,,,,,,,,,,,,,,,,,,572.948177385988,None,572.948177385988,None,left,1,1.9619872559851501,572.948177385988,None,574.9302007899969,None,,,,,,,,,,,,,,,,,,,,,,,,,,,,,,,,,,20,Female,20,001,2021_Mar_09_2210,cal_abstract,2020.2.4,60.192742577976475,
,,,,Fix1,stimuli/Old/5.jpg,right,,,,,,,,,,,,0,47,47,47,,,,,,,,,,,,,,,,,,,,,,,,,,,,,,,,,,,,,,,,1,,,,,,,,,,,,,,,,,,,,,,,,,575.7013252299803,None,575.7013252299803,None,right,1,1.6095667740155477,575.7013252299803,None,577.3303895699792,None,,,,,,,,,,,,,,,,,,,,,,,,,,,,,,,,,,20,Female,20,001,2021_Mar_09_2210,cal_abstract,2020.2.4,60.192742577976475,
,,,,Cond,stimuli/Dangerous/55.jpg,left,,,,,,,,,,,,0,48,48,48,,,,,,,,,,,,,,,,,,,,,,,,,,,,,,,,,,,,,,,,1,,,,,,,,,,,,,,,,,,,,,,,,,578.0990932239802,None,578.0990932239802,None,left,1,0.9619731919956394,578.0990932239802,None,579.079801807995,None,,,,,,,,,,,,,,,,,,,,,,,,,,,,,,,,,,20,Female,20,001,2021_Mar_09_2210,cal_abstract,2020.2.4,60.192742577976475,
,,,,Cond,stimuli/Dangerous/33.jpg,right,,,,,,,,,,,,0,49,49,49,,,,,,,,,,,,,,,,,,,,,,,,,,,,,,,,,,,,,,,,0,,,,,,,,,,,,,,,,,,,,,,,,,579.8476620369765,None,579.8476620369765,None,left,0,0.6662818810145836,579.8476620369765,None,580.5313214419875,None,,,,,,,,,,,,,,,,,,,,,,,,,,,,,,,,,,20,Female,20,001,2021_Mar_09_2210,cal_abstract,2020.2.4,60.192742577976475,
,,,,Cond,stimuli/Dangerous/31.jpg,left,,,,,,,,,,,,0,50,50,50,,,,,,,,,,,,,,,,,,,,,,,,,,,,,,,,,,,,,,,,1,,,,,,,,,,,,,,,,,,,,,,,,,581.2985493970045,None,581.2985493970045,None,left,1,1.7753059369861148,581.2985493970045,None,583.0971561799815,None,,,,,,,,,,,,,,,,,,,,,,,,,,,,,,,,,,20,Female,20,001,2021_Mar_09_2210,cal_abstract,2020.2.4,60.192742577976475,
,,,,Fix2,stimuli/Soft/28.jpg,left,,,,,,,,,,,,0,51,51,51,,,,,,,,,,,,,,,,,,,,,,,,,,,,,,,,,,,,,,,,1,,,,,,,,,,,,,,,,,,,,,,,,,583.8681199919956,None,583.8681199919956,None,left,1,0.9485377070086543,583.8681199919956,None,584.8470043449779,None,,,,,,,,,,,,,,,,,,,,,,,,,,,,,,,,,,20,Female,20,001,2021_Mar_09_2210,cal_abstract,2020.2.4,60.192742577976475,
,,,,Cond,stimuli/Dangerous/4.jpg,right,,,,,,,,,,,,0,52,52,52,,,,,,,,,,,,,,,,,,,,,,,,,,,,,,,,,,,,,,,,1,,,,,,,,,,,,,,,,,,,,,,,,,585.6164659069909,None,585.6164659069909,None,right,1,0.8472798849979881,585.6164659069909,None,586.4808269389905,None,,,,,,,,,,,,,,,,,,,,,,,,,,,,,,,,,,20,Female,20,001,2021_Mar_09_2210,cal_abstract,2020.2.4,60.192742577976475,
,,,,Fix2,stimuli/Soft/6.jpg,left,,,,,,,,,,,,0,53,53,53,,,,,,,,,,,,,,,,,,,,,,,,,,,,,,,,,,,,,,,,1,,,,,,,,,,,,,,,,,,,,,,,,,587.2468029059819,None,587.2468029059819,None,left,1,2.0388807599956635,587.2468029059819,None,589.3140696249902,None,,,,,,,,,,,,,,,,,,,,,,,,,,,,,,,,,,20,Female,20,001,2021_Mar_09_2210,cal_abstract,2020.2.4,60.192742577976475,
,,,,Cond,stimuli/Dangerous/0.jpg,right,,,,,,,,,,,,0,54,54,54,,,,,,,,,,,,,,,,,,,,,,,,,,,,,,,,,,,,,,,,1,,,,,,,,,,,,,,,,,,,,,,,,,590.0807252200029,None,590.0807252200029,None,right,1,1.097794730012538,590.0807252200029,None,591.1967460110027,None,,,,,,,,,,,,,,,,,,,,,,,,,,,,,,,,,,20,Female,20,001,2021_Mar_09_2210,cal_abstract,2020.2.4,60.192742577976475,
,,,,Fix2,stimuli/Soft/40.jpg,left,,,,,,,,,,,,0,55,55,55,,,,,,,,,,,,,,,,,,,,,,,,,,,,,,,,,,,,,,,,1,,,,,,,,,,,,,,,,,,,,,,,,,591.9645566459803,None,591.9645566459803,None,left,1,0.7469771319883876,591.9645566459803,None,592.7307853359962,None,,,,,,,,,,,,,,,,,,,,,,,,,,,,,,,,,,20,Female,20,001,2021_Mar_09_2210,cal_abstract,2020.2.4,60.192742577976475,
,,,,Cond,stimuli/Dangerous/37.jpg,right,,,,,,,,,,,,0,56,56,56,,,,,,,,,,,,,,,,,,,,,,,,,,,,,,,,,,,,,,,,1,,,,,,,,,,,,,,,,,,,,,,,,,593.4986798769969,None,593.4986798769969,None,right,1,1.3767128369945567,593.4986798769969,None,594.8970956569829,None,,,,,,,,,,,,,,,,,,,,,,,,,,,,,,,,,,20,Female,20,001,2021_Mar_09_2210,cal_abstract,2020.2.4,60.192742577976475,
,,,,Fix1,stimuli/Old/49.jpg,right,,,,,,,,,,,,0,57,57,57,,,,,,,,,,,,,,,,,,,,,,,,,,,,,,,,,,,,,,,,1,,,,,,,,,,,,,,,,,,,,,,,,,595.6659696489805,None,595.6659696489805,None,right,1,0.6717042159871198,595.6659696489805,None,596.3644298869767,None,,,,,,,,,,,,,,,,,,,,,,,,,,,,,,,,,,20,Female,20,001,2021_Mar_09_2210,cal_abstract,2020.2.4,60.192742577976475,
,,,,Cond,stimuli/Dangerous/2.jpg,left,,,,,,,,,,,,0,58,58,58,,,,,,,,,,,,,,,,,,,,,,,,,,,,,,,,,,,,,,,,1,,,,,,,,,,,,,,,,,,,,,,,,,597.1309836919827,None,597.1309836919827,None,left,1,0.809400686994195,597.1309836919827,None,597.9627036009915,None,,,,,,,,,,,,,,,,,,,,,,,,,,,,,,,,,,20,Female,20,001,2021_Mar_09_2210,cal_abstract,2020.2.4,60.192742577976475,
,,,,Fix2,stimuli/Soft/51.jpg,left,,,,,,,,,,,,0,59,59,59,,,,,,,,,,,,,,,,,,,,,,,,,,,,,,,,,,,,,,,,1,,,,,,,,,,,,,,,,,,,,,,,,,598.7474286329816,None,598.7474286329816,None,left,1,0.6279389669944067,598.7474286329816,None,599.3974627649877,None,,,,,,,,,,,,,,,,,,,,,,,,,,,,,,,,,,20,Female,20,001,2021_Mar_09_2210,cal_abstract,2020.2.4,60.192742577976475,
,,,,Cond,stimuli/Dangerous/28.jpg,right,,,,,,,,,,,,0,60,60,60,,,,,,,,,,,,,,,,,,,,,,,,,,,,,,,,,,,,,,,,1,,,,,,,,,,,,,,,,,,,,,,,,,600.1675064839947,None,600.1675064839947,None,right,1,1.0976298770110589,600.1675064839947,None,601.2966115679883,None,,,,,,,,,,,,,,,,,,,,,,,,,,,,,,,,,,20,Female,20,001,2021_Mar_09_2210,cal_abstract,2020.2.4,60.192742577976475,
,,,,Cond,stimuli/Dangerous/48.jpg,left,,,,,,,,,,,,0,61,61,61,,,,,,,,,,,,,,,,,,,,,,,,,,,,,,,,,,,,,,,,1,,,,,,,,,,,,,,,,,,,,,,,,,602.065706163994,None,602.065706163994,None,left,1,0.8163880569918547,602.065706163994,None,602.9135836069763,None,,,,,,,,,,,,,,,,,,,,,,,,,,,,,,,,,,20,Female,20,001,2021_Mar_09_2210,cal_abstract,2020.2.4,60.192742577976475,
,,,,Fix1,stimuli/Old/44.jpg,right,,,,,,,,,,,,0,62,62,62,,,,,,,,,,,,,,,,,,,,,,,,,,,,,,,,,,,,,,,,1,,,,,,,,,,,,,,,,,,,,,,,,,603.6815121459949,None,603.6815121459949,None,right,1,1.0738631519780029,603.6815121459949,None,604.7800877269765,None,,,,,,,,,,,,,,,,,,,,,,,,,,,,,,,,,,20,Female,20,001,2021_Mar_09_2210,cal_abstract,2020.2.4,60.192742577976475,
,,,,Fix2,stimuli/Soft/18.jpg,left,,,,,,,,,,,,0,63,63,63,,,,,,,,,,,,,,,,,,,,,,,,,,,,,,,,,,,,,,,,1,,,,,,,,,,,,,,,,,,,,,,,,,605.5481610689894,None,605.5481610689894,None,left,1,0.9168116140062921,605.5481610689894,None,606.4970284239971,None,,,,,,,,,,,,,,,,,,,,,,,,,,,,,,,,,,20,Female,20,001,2021_Mar_09_2210,cal_abstract,2020.2.4,60.192742577976475,
,,,,Fix1,stimuli/Old/37.jpg,right,,,,,,,,,,,,0,64,64,64,,,,,,,,,,,,,,,,,,,,,,,,,,,,,,,,,,,,,,,,1,,,,,,,,,,,,,,,,,,,,,,,,,607.2809207089886,None,607.2809207089886,None,right,1,0.6661447160004172,607.2809207089886,None,607.9635596119915,None,,,,,,,,,,,,,,,,,,,,,,,,,,,,,,,,,,20,Female,20,001,2021_Mar_09_2210,cal_abstract,2020.2.4,60.192742577976475,
,,,,Fix1,stimuli/Old/1.jpg,right,,,,,,,,,,,,0,65,65,65,,,,,,,,,,,,,,,,,,,,,,,,,,,,,,,,,,,,,,,,1,,,,,,,,,,,,,,,,,,,,,,,,,608.7318926939915,None,608.7318926939915,None,right,1,1.763060453988146,608.7318926939915,None,610.5138484939816,None,,,,,,,,,,,,,,,,,,,,,,,,,,,,,,,,,,20,Female,20,001,2021_Mar_09_2210,cal_abstract,2020.2.4,60.192742577976475,
,,,,Cond,stimuli/Dangerous/44.jpg,left,,,,,,,,,,,,0,66,66,66,,,,,,,,,,,,,,,,,,,,,,,,,,,,,,,,,,,,,,,,1,,,,,,,,,,,,,,,,,,,,,,,,,611.2807082969812,None,611.2807082969812,None,left,1,1.5341505930118728,611.2807082969812,None,612.8469779180014,None,,,,,,,,,,,,,,,,,,,,,,,,,,,,,,,,,,20,Female,20,001,2021_Mar_09_2210,cal_abstract,2020.2.4,60.192742577976475,
,,,,Fix1,stimuli/Old/3.jpg,right,,,,,,,,,,,,0,67,67,67,,,,,,,,,,,,,,,,,,,,,,,,,,,,,,,,,,,,,,,,1,,,,,,,,,,,,,,,,,,,,,,,,,613.6177574589965,None,613.6177574589965,None,right,1,3.169825000979472,613.6177574589965,None,616.8133716379816,None,,,,,,,,,,,,,,,,,,,,,,,,,,,,,,,,,,20,Female,20,001,2021_Mar_09_2210,cal_abstract,2020.2.4,60.192742577976475,
,,,,Fix1,stimuli/Old/39.jpg,right,,,,,,,,,,,,0,68,68,68,,,,,,,,,,,,,,,,,,,,,,,,,,,,,,,,,,,,,,,,1,,,,,,,,,,,,,,,,,,,,,,,,,617.5819147419825,None,617.5819147419825,None,right,1,1.904197291994933,617.5819147419825,None,619.5133245780016,None,,,,,,,,,,,,,,,,,,,,,,,,,,,,,,,,,,20,Female,20,001,2021_Mar_09_2210,cal_abstract,2020.2.4,60.192742577976475,
,,,,Fix2,stimuli/Soft/23.jpg,left,,,,,,,,,,,,0,69,69,69,,,,,,,,,,,,,,,,,,,,,,,,,,,,,,,,,,,,,,,,1,,,,,,,,,,,,,,,,,,,,,,,,,620.2817391309945,None,620.2817391309945,None,left,1,0.8583351960114669,620.2817391309945,None,621.1631446329993,None,,,,,,,,,,,,,,,,,,,,,,,,,,,,,,,,,,20,Female,20,001,2021_Mar_09_2210,cal_abstract,2020.2.4,60.192742577976475,
,,,,Cond,stimuli/Dangerous/45.jpg,right,,,,,,,,,,,,0,70,70,70,,,,,,,,,,,,,,,,,,,,,,,,,,,,,,,,,,,,,,,,1,,,,,,,,,,,,,,,,,,,,,,,,,621.9309919329826,None,621.9309919329826,None,right,1,0.8730749640089925,621.9309919329826,None,622.8304466769914,None,,,,,,,,,,,,,,,,,,,,,,,,,,,,,,,,,,20,Female,20,001,2021_Mar_09_2210,cal_abstract,2020.2.4,60.192742577976475,
,,,,Cond,stimuli/Dangerous/40.jpg,left,,,,,,,,,,,,0,71,71,71,,,,,,,,,,,,,,,,,,,,,,,,,,,,,,,,,,,,,,,,1,,,,,,,,,,,,,,,,,,,,,,,,,623.5968069649825,None,623.5968069649825,None,left,1,0.6551428560051136,623.5968069649825,None,624.2794917619904,None,,,,,,,,,,,,,,,,,,,,,,,,,,,,,,,,,,20,Female,20,001,2021_Mar_09_2210,cal_abstract,2020.2.4,60.192742577976475,
,,,,Fix2,stimuli/Soft/35.jpg,left,,,,,,,,,,,,0,72,72,72,,,,,,,,,,,,,,,,,,,,,,,,,,,,,,,,,,,,,,,,1,,,,,,,,,,,,,,,,,,,,,,,,,625.0469312409987,None,625.0469312409987,None,left,1,0.7006395619828254,625.0469312409987,None,625.7798772399838,None,,,,,,,,,,,,,,,,,,,,,,,,,,,,,,,,,,20,Female,20,001,2021_Mar_09_2210,cal_abstract,2020.2.4,60.192742577976475,
,,,,Fix2,stimuli/Soft/21.jpg,left,,,,,,,,,,,,0,73,73,73,,,,,,,,,,,,,,,,,,,,,,,,,,,,,,,,,,,,,,,,1,,,,,,,,,,,,,,,,,,,,,,,,,626.5503229909809,None,626.5503229909809,None,left,1,0.8894400129793212,626.5503229909809,None,627.4630231479823,None,,,,,,,,,,,,,,,,,,,,,,,,,,,,,,,,,,20,Female,20,001,2021_Mar_09_2210,cal_abstract,2020.2.4,60.192742577976475,
,,,,Cond,stimuli/Dangerous/24.jpg,right,,,,,,,,,,,,0,74,74,74,,,,,,,,,,,,,,,,,,,,,,,,,,,,,,,,,,,,,,,,1,,,,,,,,,,,,,,,,,,,,,,,,,628.2475343349797,None,628.2475343349797,None,right,1,0.996067080006469,628.2475343349797,None,629.2630546599976,None,,,,,,,,,,,,,,,,,,,,,,,,,,,,,,,,,,20,Female,20,001,2021_Mar_09_2210,cal_abstract,2020.2.4,60.192742577976475,
,,,,Cond,stimuli/Dangerous/32.jpg,left,,,,,,,,,,,,0,75,75,75,,,,,,,,,,,,,,,,,,,,,,,,,,,,,,,,,,,,,,,,1,,,,,,,,,,,,,,,,,,,,,,,,,630.0333092329965,None,630.0333092329965,None,left,1,0.8573095280153211,630.0333092329965,None,630.9130256490025,None,,,,,,,,,,,,,,,,,,,,,,,,,,,,,,,,,,20,Female,20,001,2021_Mar_09_2210,cal_abstract,2020.2.4,60.192742577976475,
,,,,Cond,stimuli/Dangerous/46.jpg,right,,,,,,,,,,,,0,76,76,76,,,,,,,,,,,,,,,,,,,,,,,,,,,,,,,,,,,,,,,,1,,,,,,,,,,,,,,,,,,,,,,,,,631.6818108070001,None,631.6818108070001,None,right,1,0.9699072859948501,631.6818108070001,None,632.6808465689828,None,,,,,,,,,,,,,,,,,,,,,,,,,,,,,,,,,,20,Female,20,001,2021_Mar_09_2210,cal_abstract,2020.2.4,60.192742577976475,
,,,,Fix1,stimuli/Old/42.jpg,right,,,,,,,,,,,,0,77,77,77,,,,,,,,,,,,,,,,,,,,,,,,,,,,,,,,,,,,,,,,1,,,,,,,,,,,,,,,,,,,,,,,,,633.4635774139897,None,633.4635774139897,None,right,1,0.6677493099996354,633.4635774139897,None,634.1630747689924,None,,,,,,,,,,,,,,,,,,,,,,,,,,,,,,,,,,20,Female,20,001,2021_Mar_09_2210,cal_abstract,2020.2.4,60.192742577976475,
,,,,Fix1,stimuli/Old/58.jpg,right,,,,,,,,,,,,0,78,78,78,,,,,,,,,,,,,,,,,,,,,,,,,,,,,,,,,,,,,,,,1,,,,,,,,,,,,,,,,,,,,,,,,,634.9307153169939,None,634.9307153169939,None,right,1,1.0578688280074857,634.9307153169939,None,636.0135522850032,None,,,,,,,,,,,,,,,,,,,,,,,,,,,,,,,,,,20,Female,20,001,2021_Mar_09_2210,cal_abstract,2020.2.4,60.192742577976475,
,,,,Fix1,stimuli/Old/27.jpg,right,,,,,,,,,,,,0,79,79,79,,,,,,,,,,,,,,,,,,,,,,,,,,,,,,,,,,,,,,,,1,,,,,,,,,,,,,,,,,,,,,,,,,636.7822390939982,None,636.7822390939982,None,right,1,0.5819878570036963,636.7822390939982,None,637.3964183699863,None,,,,,,,,,,,,,,,,,,,,,,,,,,,,,,,,,,20,Female,20,001,2021_Mar_09_2210,cal_abstract,2020.2.4,60.192742577976475,
