Text,Block1Type,Block1Stim,Block1Corr,Block2Type,Block2Stim,Block2Corr,Block3Type,Block3Stim,Block3Corr,Instruction_loop.thisRepN,Instruction_loop.thisTrialN,Instruction_loop.thisN,Instruction_loop.thisIndex,Block1_loop.thisRepN,Block1_loop.thisTrialN,Block1_loop.thisN,Block1_loop.thisIndex,Block2_loop.thisRepN,Block2_loop.thisTrialN,Block2_loop.thisN,Block2_loop.thisIndex,Block3_loop.thisRepN,Block3_loop.thisTrialN,Block3_loop.thisN,Block3_loop.thisIndex,welcome_text1.started,welcome_text1.stopped,welcome_text2.started,welcome_text2.stopped,welcome_text3.started,welcome_text3.stopped,welcome_resp.keys,welcome_resp.rt,welcome_resp.started,welcome_resp.stopped,instruct_text1.started,instruct_text1.stopped,instruct_text2.started,instruct_text2.stopped,instruct_resp1.keys,instruct_resp1.rt,instruct_resp1.started,instruct_resp1.stopped,start_text1.started,start_text1.stopped,start_text2.started,start_text2.stopped,start_resp1.keys,start_resp1.rt,start_resp1.started,start_resp1.stopped,image1.started,image1.stopped,text1.started,text1.stopped,key_resp1.keys,key_resp1.corr,key_resp1.rt,key_resp1.started,key_resp1.stopped,trialCorrect,feedback_text1.started,feedback_text1.stopped,break_text1.started,break_text1.stopped,break_resp1.keys,break_resp1.rt,break_resp1.started,break_resp1.stopped,intructRemind_text1.started,intructRemind_text1.stopped,instructRemind_text2.started,instructRemind_text2.stopped,instructRemind_resp1.keys,instructRemind_resp1.rt,instructRemind_resp1.started,instructRemind_resp1.stopped,start_text3.started,start_text3.stopped,start_text4.started,start_text4.stopped,start_resp2.keys,start_resp2.rt,start_resp2.started,start_resp2.stopped,image2.started,image2.stopped,text2.started,text2.stopped,key_resp2.keys,key_resp2.corr,key_resp2.rt,key_resp2.started,key_resp2.stopped,feedback_text2.started,feedback_text2.stopped,break_text2.started,break_text2.stopped,break_resp2.keys,break_resp2.rt,break_resp2.started,break_resp2.stopped,start_text5.started,start_text5.stopped,start_text6.started,start_text6.stopped,start_resp3.keys,start_resp3.rt,start_resp3.started,start_resp3.stopped,image3.started,image3.stopped,text3.started,text3.stopped,key_resp3.keys,key_resp3.corr,key_resp3.rt,key_resp3.started,key_resp3.stopped,feedback_text3.started,feedback_text3.stopped,end_text1.started,end_text1.stopped,end_text2.started,end_text2.stopped,end_resp.keys,end_resp.rt,end_resp.started,end_resp.stopped,participant,sex,age,session,date,expName,psychopyVersion,frameRate,
,,,,,,,,,,,,,,,,,,,,,,,,,,28.31105254497379,None,28.31105254497379,None,28.31105254497379,None,return,7.7153361680102535,28.31105254497379,None,,,,,,,,,,,,,,,,,,,,,,,,,,,,,,,,,,,,,,,,,,,,,,,,,,,,,,,,,,,,,,,,,,,,,,,,,,,,,,,,,,,,,,,,,,,,,,,21,Female,19,001,2021_Mar_10_1429,cal_abstract,2020.2.4,None,
"You will be presented with a series of images. It is your job to learn, through trial and error, whether the “Left” or “Right” arrow key should be pressed for each image.",,,,,,,,,,0,0,0,0,,,,,,,,,,,,,,,,,,,,,,,36.09717182000168,None,36.09717182000168,None,return,16.731680479017086,36.09717182000168,None,,,,,,,,,,,,,,,,,,,,,,,,,,,,,,,,,,,,,,,,,,,,,,,,,,,,,,,,,,,,,,,,,,,,,,,,,,,,,,,,,,,,,,,21,Female,19,001,2021_Mar_10_1429,cal_abstract,2020.2.4,None,
"For some images you should always press “Left”, and for others you should always press “Right” arrow key.",,,,,,,,,,0,1,1,1,,,,,,,,,,,,,,,,,,,,,,,52.895824797975365,None,52.895824797975365,None,return,6.863555464020465,52.895824797975365,None,,,,,,,,,,,,,,,,,,,,,,,,,,,,,,,,,,,,,,,,,,,,,,,,,,,,,,,,,,,,,,,,,,,,,,,,,,,,,,,,,,,,,,,21,Female,19,001,2021_Mar_10_1429,cal_abstract,2020.2.4,None,
Some images are special: the correct response is the opposite of the preceding correct response.,,,,,,,,,,0,2,2,2,,,,,,,,,,,,,,,,,,,,,,,59.83073828998022,None,59.83073828998022,None,return,17.767797159031034,59.83073828998022,None,,,,,,,,,,,,,,,,,,,,,,,,,,,,,,,,,,,,,,,,,,,,,,,,,,,,,,,,,,,,,,,,,,,,,,,,,,,,,,,,,,,,,,,21,Female,19,001,2021_Mar_10_1429,cal_abstract,2020.2.4,None,
"That is, if the previous correct answer was “Left” then the correct response would now be “Right”.",,,,,,,,,,0,3,3,3,,,,,,,,,,,,,,,,,,,,,,,77.66318550298456,None,77.66318550298456,None,return,10.155309688998386,77.66318550298456,None,,,,,,,,,,,,,,,,,,,,,,,,,,,,,,,,,,,,,,,,,,,,,,,,,,,,,,,,,,,,,,,,,,,,,,,,,,,,,,,,,,,,,,,21,Female,19,001,2021_Mar_10_1429,cal_abstract,2020.2.4,None,
"After each response, you will be told whether you got the item correct or incorrect.",,,,,,,,,,0,4,4,4,,,,,,,,,,,,,,,,,,,,,,,87.86024273996009,None,87.86024273996009,None,return,5.331762532994617,87.86024273996009,None,,,,,,,,,,,,,,,,,,,,,,,,,,,,,,,,,,,,,,,,,,,,,,,,,,,,,,,,,,,,,,,,,,,,,,,,,,,,,,,,,,,,,,,21,Female,19,001,2021_Mar_10_1429,cal_abstract,2020.2.4,None,
"You can take as long as you like on each image, but the task will not continue until you press the “Left” or “Right” arrow key.",,,,,,,,,,0,5,5,5,,,,,,,,,,,,,,,,,,,,,,,93.229765778,None,93.229765778,None,return,6.449678934994154,93.229765778,None,,,,,,,,,,,,,,,,,,,,,,,,,,,,,,,,,,,,,,,,,,,,,,,,,,,,,,,,,,,,,,,,,,,,,,,,,,,,,,,,,,,,,,,21,Female,19,001,2021_Mar_10_1429,cal_abstract,2020.2.4,None,
"The experiment will have three blocks, each block will take approximately 10 minutes to complete.",,,,,,,,,,0,6,6,6,,,,,,,,,,,,,,,,,,,,,,,99.75648330396507,None,99.75648330396507,None,return,5.696932968974579,99.75648330396507,None,,,,,,,,,,,,,,,,,,,,,,,,,,,,,,,,,,,,,,,,,,,,,,,,,,,,,,,,,,,,,,,,,,,,,,,,,,,,,,,,,,,,,,,21,Female,19,001,2021_Mar_10_1429,cal_abstract,2020.2.4,None,
None,,,,,,,,,,0,7,7,7,,,,,,,,,,,,,,,,,,,,,,,105.5098508829833,None,105.5098508829833,None,return,1.6686810480314307,105.5098508829833,None,,,,,,,,,,,,,,,,,,,,,,,,,,,,,,,,,,,,,,,,,,,,,,,,,,,,,,,,,,,,,,,,,,,,,,,,,,,,,,,,,,,,,,,21,Female,19,001,2021_Mar_10_1429,cal_abstract,2020.2.4,None,
None,,,,,,,,,,0,8,8,8,,,,,,,,,,,,,,,,,,,,,,,107.24709305696888,None,107.24709305696888,None,return,0.4690592869883403,107.24709305696888,None,,,,,,,,,,,,,,,,,,,,,,,,,,,,,,,,,,,,,,,,,,,,,,,,,,,,,,,,,,,,,,,,,,,,,,,,,,,,,,,,,,,,,,,21,Female,19,001,2021_Mar_10_1429,cal_abstract,2020.2.4,None,
None,,,,,,,,,,0,9,9,9,,,,,,,,,,,,,,,,,,,,,,,107.79315023100935,None,107.79315023100935,None,return,0.5380014039692469,107.79315023100935,None,,,,,,,,,,,,,,,,,,,,,,,,,,,,,,,,,,,,,,,,,,,,,,,,,,,,,,,,,,,,,,,,,,,,,,,,,,,,,,,,,,,,,,,21,Female,19,001,2021_Mar_10_1429,cal_abstract,2020.2.4,None,
None,,,,,,,,,,0,10,10,10,,,,,,,,,,,,,,,,,,,,,,,108.36089539498789,None,108.36089539498789,None,return,0.5564514309517108,108.36089539498789,None,,,,,,,,,,,,,,,,,,,,,,,,,,,,,,,,,,,,,,,,,,,,,,,,,,,,,,,,,,,,,,,,,,,,,,,,,,,,,,,,,,,,,,,21,Female,19,001,2021_Mar_10_1429,cal_abstract,2020.2.4,None,
None,,,,,,,,,,0,11,11,11,,,,,,,,,,,,,,,,,,,,,,,108.99394749599742,None,108.99394749599742,None,return,0.5002236330183223,108.99394749599742,None,,,,,,,,,,,,,,,,,,,,,,,,,,,,,,,,,,,,,,,,,,,,,,,,,,,,,,,,,,,,,,,,,,,,,,,,,,,,,,,,,,,,,,,21,Female,19,001,2021_Mar_10_1429,cal_abstract,2020.2.4,None,
,,,,,,,,,,,,,,,,,,,,,,,,,,,,,,,,,,,,,,,,,,,,109.54945844697068,None,109.54945844697068,None,s,3.649509653041605,109.54945844697068,None,,,,,,,,,,,,,,,,,,,,,,,,,,,,,,,,,,,,,,,,,,,,,,,,,,,,,,,,,,,,,,,,,,,,,,,,,,,,,,,21,Female,19,001,2021_Mar_10_1429,cal_abstract,2020.2.4,None,
,Fix1,stimuli/Healthy/43.jpg,right,,,,,,,,,,,0,0,0,0,,,,,,,,,,,,,,,,,,,,,,,,,,,,,,,,,,,113.39370726101333,None,113.39370726101333,None,left,0,6.725647052982822,113.39370726101333,None,0,120.17688562598778,None,,,,,,,,,,,,,,,,,,,,,,,,,,,,,,,,,,,,,,,,,,,,,,,,,,,,,,,,,,,,,,,,,,,21,Female,19,001,2021_Mar_10_1429,cal_abstract,2020.2.4,None,
,Cond,stimuli/Soft/19.jpg,left,,,,,,,,,,,0,1,1,1,,,,,,,,,,,,,,,,,,,,,,,,,,,,,,,,,,,120.97286659496604,None,120.97286659496604,None,right,0,36.65198220097227,120.97286659496604,None,0,157.68881076900288,None,,,,,,,,,,,,,,,,,,,,,,,,,,,,,,,,,,,,,,,,,,,,,,,,,,,,,,,,,,,,,,,,,,,21,Female,19,001,2021_Mar_10_1429,cal_abstract,2020.2.4,None,
,Cond,stimuli/Soft/28.jpg,right,,,,,,,,,,,0,2,2,2,,,,,,,,,,,,,,,,,,,,,,,,,,,,,,,,,,,158.50015979399905,None,158.50015979399905,None,left,0,4.186762002995238,158.50015979399905,None,0,162.71212992200162,None,,,,,,,,,,,,,,,,,,,,,,,,,,,,,,,,,,,,,,,,,,,,,,,,,,,,,,,,,,,,,,,,,,,21,Female,19,001,2021_Mar_10_1429,cal_abstract,2020.2.4,None,
,Cond,stimuli/Soft/11.jpg,left,,,,,,,,,,,0,3,3,3,,,,,,,,,,,,,,,,,,,,,,,,,,,,,,,,,,,163.59316177497385,None,163.59316177497385,None,left,1,3.534076530020684,163.59316177497385,None,1,167.15921508800238,None,,,,,,,,,,,,,,,,,,,,,,,,,,,,,,,,,,,,,,,,,,,,,,,,,,,,,,,,,,,,,,,,,,,21,Female,19,001,2021_Mar_10_1429,cal_abstract,2020.2.4,None,
,Fix2,stimuli/School/13.jpg,left,,,,,,,,,,,0,4,4,4,,,,,,,,,,,,,,,,,,,,,,,,,,,,,,,,,,,167.94719494099263,None,167.94719494099263,None,right,0,3.758866672986187,167.94719494099263,None,0,171.77698387601413,None,,,,,,,,,,,,,,,,,,,,,,,,,,,,,,,,,,,,,,,,,,,,,,,,,,,,,,,,,,,,,,,,,,,21,Female,19,001,2021_Mar_10_1429,cal_abstract,2020.2.4,None,
,Cond,stimuli/Soft/49.jpg,right,,,,,,,,,,,0,5,5,5,,,,,,,,,,,,,,,,,,,,,,,,,,,,,,,,,,,172.54391034896253,None,172.54391034896253,None,right,1,9.344963711046148,172.54391034896253,None,1,181.96013875299832,None,,,,,,,,,,,,,,,,,,,,,,,,,,,,,,,,,,,,,,,,,,,,,,,,,,,,,,,,,,,,,,,,,,,21,Female,19,001,2021_Mar_10_1429,cal_abstract,2020.2.4,None,
,Cond,stimuli/Soft/14.jpg,left,,,,,,,,,,,0,6,6,6,,,,,,,,,,,,,,,,,,,,,,,,,,,,,,,,,,,182.81030670995824,None,182.81030670995824,None,left,1,3.3175788950175047,182.81030670995824,None,1,186.162667408993,None,,,,,,,,,,,,,,,,,,,,,,,,,,,,,,,,,,,,,,,,,,,,,,,,,,,,,,,,,,,,,,,,,,,21,Female,19,001,2021_Mar_10_1429,cal_abstract,2020.2.4,None,
,Cond,stimuli/Soft/37.jpg,right,,,,,,,,,,,0,7,7,7,,,,,,,,,,,,,,,,,,,,,,,,,,,,,,,,,,,186.92775684699882,None,186.92775684699882,None,right,1,3.0633914579520933,186.92775684699882,None,1,190.01010976399994,None,,,,,,,,,,,,,,,,,,,,,,,,,,,,,,,,,,,,,,,,,,,,,,,,,,,,,,,,,,,,,,,,,,,21,Female,19,001,2021_Mar_10_1429,cal_abstract,2020.2.4,None,
,Fix1,stimuli/Healthy/42.jpg,right,,,,,,,,,,,0,8,8,8,,,,,,,,,,,,,,,,,,,,,,,,,,,,,,,,,,,190.80994290701346,None,190.80994290701346,None,right,1,3.150127650005743,190.80994290701346,None,1,194.0265298569575,None,,,,,,,,,,,,,,,,,,,,,,,,,,,,,,,,,,,,,,,,,,,,,,,,,,,,,,,,,,,,,,,,,,,21,Female,19,001,2021_Mar_10_1429,cal_abstract,2020.2.4,None,
,Fix2,stimuli/School/9.jpg,left,,,,,,,,,,,0,9,9,9,,,,,,,,,,,,,,,,,,,,,,,,,,,,,,,,,,,194.76300978800282,None,194.76300978800282,None,left,1,3.566575321019627,194.76300978800282,None,1,198.4120806439896,None,,,,,,,,,,,,,,,,,,,,,,,,,,,,,,,,,,,,,,,,,,,,,,,,,,,,,,,,,,,,,,,,,,,21,Female,19,001,2021_Mar_10_1429,cal_abstract,2020.2.4,None,
,Fix2,stimuli/School/56.jpg,left,,,,,,,,,,,0,10,10,10,,,,,,,,,,,,,,,,,,,,,,,,,,,,,,,,,,,199.14930013701087,None,199.14930013701087,None,right,0,2.5514266989775933,199.14930013701087,None,0,201.77519445400685,None,,,,,,,,,,,,,,,,,,,,,,,,,,,,,,,,,,,,,,,,,,,,,,,,,,,,,,,,,,,,,,,,,,,21,Female,19,001,2021_Mar_10_1429,cal_abstract,2020.2.4,None,
,Fix1,stimuli/Healthy/62.jpg,right,,,,,,,,,,,0,11,11,11,,,,,,,,,,,,,,,,,,,,,,,,,,,,,,,,,,,202.5430420699995,None,202.5430420699995,None,left,0,3.3767225120100193,202.5430420699995,None,0,205.94222200196236,None,,,,,,,,,,,,,,,,,,,,,,,,,,,,,,,,,,,,,,,,,,,,,,,,,,,,,,,,,,,,,,,,,,,21,Female,19,001,2021_Mar_10_1429,cal_abstract,2020.2.4,None,
,Fix2,stimuli/School/20.jpg,left,,,,,,,,,,,0,12,12,12,,,,,,,,,,,,,,,,,,,,,,,,,,,,,,,,,,,206.74296472995775,None,206.74296472995775,None,right,0,5.761606851010583,206.74296472995775,None,0,212.52619092498207,None,,,,,,,,,,,,,,,,,,,,,,,,,,,,,,,,,,,,,,,,,,,,,,,,,,,,,,,,,,,,,,,,,,,21,Female,19,001,2021_Mar_10_1429,cal_abstract,2020.2.4,None,
,Cond,stimuli/Soft/59.jpg,right,,,,,,,,,,,0,13,13,13,,,,,,,,,,,,,,,,,,,,,,,,,,,,,,,,,,,213.32705010398058,None,213.32705010398058,None,left,0,5.228092260018457,213.32705010398058,None,0,218.62353114096913,None,,,,,,,,,,,,,,,,,,,,,,,,,,,,,,,,,,,,,,,,,,,,,,,,,,,,,,,,,,,,,,,,,,,21,Female,19,001,2021_Mar_10_1429,cal_abstract,2020.2.4,None,
,Fix1,stimuli/Healthy/29.jpg,right,,,,,,,,,,,0,14,14,14,,,,,,,,,,,,,,,,,,,,,,,,,,,,,,,,,,,219.44632014696253,None,219.44632014696253,None,left,0,3.3595073749893345,219.44632014696253,None,0,222.8591339829727,None,,,,,,,,,,,,,,,,,,,,,,,,,,,,,,,,,,,,,,,,,,,,,,,,,,,,,,,,,,,,,,,,,,,21,Female,19,001,2021_Mar_10_1429,cal_abstract,2020.2.4,None,
,Fix1,stimuli/Healthy/14.jpg,right,,,,,,,,,,,0,15,15,15,,,,,,,,,,,,,,,,,,,,,,,,,,,,,,,,,,,223.6121932459646,None,223.6121932459646,None,right,1,3.4131214980152436,223.6121932459646,None,1,227.07933882198995,None,,,,,,,,,,,,,,,,,,,,,,,,,,,,,,,,,,,,,,,,,,,,,,,,,,,,,,,,,,,,,,,,,,,21,Female,19,001,2021_Mar_10_1429,cal_abstract,2020.2.4,None,
,Fix2,stimuli/School/51.jpg,left,,,,,,,,,,,0,16,16,16,,,,,,,,,,,,,,,,,,,,,,,,,,,,,,,,,,,227.82563114201184,None,227.82563114201184,None,right,0,5.619357719027903,227.82563114201184,None,0,233.5246652289643,None,,,,,,,,,,,,,,,,,,,,,,,,,,,,,,,,,,,,,,,,,,,,,,,,,,,,,,,,,,,,,,,,,,,21,Female,19,001,2021_Mar_10_1429,cal_abstract,2020.2.4,None,
,Cond,stimuli/Soft/55.jpg,right,,,,,,,,,,,0,17,17,17,,,,,,,,,,,,,,,,,,,,,,,,,,,,,,,,,,,234.26356662198668,None,234.26356662198668,None,left,0,1.882217142963782,234.26356662198668,None,0,236.21241245797137,None,,,,,,,,,,,,,,,,,,,,,,,,,,,,,,,,,,,,,,,,,,,,,,,,,,,,,,,,,,,,,,,,,,,21,Female,19,001,2021_Mar_10_1429,cal_abstract,2020.2.4,None,
,Cond,stimuli/Soft/18.jpg,left,,,,,,,,,,,0,18,18,18,,,,,,,,,,,,,,,,,,,,,,,,,,,,,,,,,,,237.0471106619807,None,237.0471106619807,None,right,0,1.9715899999719113,237.0471106619807,None,0,239.04108002601424,None,,,,,,,,,,,,,,,,,,,,,,,,,,,,,,,,,,,,,,,,,,,,,,,,,,,,,,,,,,,,,,,,,,,21,Female,19,001,2021_Mar_10_1429,cal_abstract,2020.2.4,None,
,Fix2,stimuli/School/36.jpg,left,,,,,,,,,,,0,19,19,19,,,,,,,,,,,,,,,,,,,,,,,,,,,,,,,,,,,239.82575889397413,None,239.82575889397413,None,left,1,5.043733756989241,239.82575889397413,None,1,244.94168662297307,None,,,,,,,,,,,,,,,,,,,,,,,,,,,,,,,,,,,,,,,,,,,,,,,,,,,,,,,,,,,,,,,,,,,21,Female,19,001,2021_Mar_10_1429,cal_abstract,2020.2.4,None,
,Cond,stimuli/Soft/38.jpg,right,,,,,,,,,,,0,20,20,20,,,,,,,,,,,,,,,,,,,,,,,,,,,,,,,,,,,245.74226561700925,None,245.74226561700925,None,left,0,7.609069305995945,245.74226561700925,None,0,253.424791317957,None,,,,,,,,,,,,,,,,,,,,,,,,,,,,,,,,,,,,,,,,,,,,,,,,,,,,,,,,,,,,,,,,,,,21,Female,19,001,2021_Mar_10_1429,cal_abstract,2020.2.4,None,
,Fix1,stimuli/Healthy/40.jpg,right,,,,,,,,,,,0,21,21,21,,,,,,,,,,,,,,,,,,,,,,,,,,,,,,,,,,,254.22682994196657,None,254.22682994196657,None,right,1,2.1934894819860347,254.22682994196657,None,1,256.46034207899356,None,,,,,,,,,,,,,,,,,,,,,,,,,,,,,,,,,,,,,,,,,,,,,,,,,,,,,,,,,,,,,,,,,,,21,Female,19,001,2021_Mar_10_1429,cal_abstract,2020.2.4,None,
,Fix1,stimuli/Healthy/69.jpg,right,,,,,,,,,,,0,22,22,22,,,,,,,,,,,,,,,,,,,,,,,,,,,,,,,,,,,257.2437206899631,None,257.2437206899631,None,right,1,2.436709191999398,257.2437206899631,None,1,259.725450938975,None,,,,,,,,,,,,,,,,,,,,,,,,,,,,,,,,,,,,,,,,,,,,,,,,,,,,,,,,,,,,,,,,,,,21,Female,19,001,2021_Mar_10_1429,cal_abstract,2020.2.4,None,
,Cond,stimuli/Soft/53.jpg,left,,,,,,,,,,,0,23,23,23,,,,,,,,,,,,,,,,,,,,,,,,,,,,,,,,,,,260.55810095299967,None,260.55810095299967,None,right,0,3.777356381993741,260.55810095299967,None,0,264.3913594390033,None,,,,,,,,,,,,,,,,,,,,,,,,,,,,,,,,,,,,,,,,,,,,,,,,,,,,,,,,,,,,,,,,,,,21,Female,19,001,2021_Mar_10_1429,cal_abstract,2020.2.4,None,
,Fix2,stimuli/School/53.jpg,left,,,,,,,,,,,0,24,24,24,,,,,,,,,,,,,,,,,,,,,,,,,,,,,,,,,,,265.19199339696206,None,265.19199339696206,None,right,0,5.804109233955387,265.19199339696206,None,0,271.0241123599699,None,,,,,,,,,,,,,,,,,,,,,,,,,,,,,,,,,,,,,,,,,,,,,,,,,,,,,,,,,,,,,,,,,,,21,Female,19,001,2021_Mar_10_1429,cal_abstract,2020.2.4,None,
,Fix1,stimuli/Healthy/45.jpg,right,,,,,,,,,,,0,25,25,25,,,,,,,,,,,,,,,,,,,,,,,,,,,,,,,,,,,271.8071182129788,None,271.8071182129788,None,left,0,4.408011419000104,271.8071182129788,None,0,276.27711964800255,None,,,,,,,,,,,,,,,,,,,,,,,,,,,,,,,,,,,,,,,,,,,,,,,,,,,,,,,,,,,,,,,,,,,21,Female,19,001,2021_Mar_10_1429,cal_abstract,2020.2.4,None,
,Fix2,stimuli/School/0.jpg,left,,,,,,,,,,,0,26,26,26,,,,,,,,,,,,,,,,,,,,,,,,,,,,,,,,,,,277.11019034299534,None,277.11019034299534,None,right,0,1.8864826780045405,277.11019034299534,None,0,279.04213867196813,None,,,,,,,,,,,,,,,,,,,,,,,,,,,,,,,,,,,,,,,,,,,,,,,,,,,,,,,,,,,,,,,,,,,21,Female,19,001,2021_Mar_10_1429,cal_abstract,2020.2.4,None,
,Cond,stimuli/Soft/21.jpg,right,,,,,,,,,,,0,27,27,27,,,,,,,,,,,,,,,,,,,,,,,,,,,,,,,,,,,279.860028702009,None,279.860028702009,None,left,0,2.8875623479834758,279.860028702009,None,0,282.7742989810067,None,,,,,,,,,,,,,,,,,,,,,,,,,,,,,,,,,,,,,,,,,,,,,,,,,,,,,,,,,,,,,,,,,,,21,Female,19,001,2021_Mar_10_1429,cal_abstract,2020.2.4,None,
,Fix2,stimuli/School/37.jpg,left,,,,,,,,,,,0,28,28,28,,,,,,,,,,,,,,,,,,,,,,,,,,,,,,,,,,,283.5917533489992,None,283.5917533489992,None,right,0,2.116626083967276,283.5917533489992,None,0,285.7746162759722,None,,,,,,,,,,,,,,,,,,,,,,,,,,,,,,,,,,,,,,,,,,,,,,,,,,,,,,,,,,,,,,,,,,,21,Female,19,001,2021_Mar_10_1429,cal_abstract,2020.2.4,None,
,Fix2,stimuli/School/50.jpg,left,,,,,,,,,,,0,29,29,29,,,,,,,,,,,,,,,,,,,,,,,,,,,,,,,,,,,286.5423753079958,None,286.5423753079958,None,left,1,2.8666812499868684,286.5423753079958,None,1,289.4279628130025,None,,,,,,,,,,,,,,,,,,,,,,,,,,,,,,,,,,,,,,,,,,,,,,,,,,,,,,,,,,,,,,,,,,,21,Female,19,001,2021_Mar_10_1429,cal_abstract,2020.2.4,None,
,Fix2,stimuli/School/46.jpg,left,,,,,,,,,,,0,30,30,30,,,,,,,,,,,,,,,,,,,,,,,,,,,,,,,,,,,290.25908523396356,None,290.25908523396356,None,right,0,4.266030761005823,290.25908523396356,None,0,294.59529750596266,None,,,,,,,,,,,,,,,,,,,,,,,,,,,,,,,,,,,,,,,,,,,,,,,,,,,,,,,,,,,,,,,,,,,21,Female,19,001,2021_Mar_10_1429,cal_abstract,2020.2.4,None,
,Cond,stimuli/Soft/42.jpg,right,,,,,,,,,,,0,31,31,31,,,,,,,,,,,,,,,,,,,,,,,,,,,,,,,,,,,295.3917524139979,None,295.3917524139979,None,left,0,2.5403657300048508,295.3917524139979,None,0,297.9904946369934,None,,,,,,,,,,,,,,,,,,,,,,,,,,,,,,,,,,,,,,,,,,,,,,,,,,,,,,,,,,,,,,,,,,,21,Female,19,001,2021_Mar_10_1429,cal_abstract,2020.2.4,None,
,Cond,stimuli/Soft/33.jpg,left,,,,,,,,,,,0,32,32,32,,,,,,,,,,,,,,,,,,,,,,,,,,,,,,,,,,,298.7903913159971,None,298.7903913159971,None,left,1,2.462285803980194,298.7903913159971,None,1,301.29136115597794,None,,,,,,,,,,,,,,,,,,,,,,,,,,,,,,,,,,,,,,,,,,,,,,,,,,,,,,,,,,,,,,,,,,,21,Female,19,001,2021_Mar_10_1429,cal_abstract,2020.2.4,None,
,Cond,stimuli/Soft/47.jpg,right,,,,,,,,,,,0,33,33,33,,,,,,,,,,,,,,,,,,,,,,,,,,,,,,,,,,,302.13407811999787,None,302.13407811999787,None,right,1,3.147771812044084,302.13407811999787,None,1,305.3249056459754,None,,,,,,,,,,,,,,,,,,,,,,,,,,,,,,,,,,,,,,,,,,,,,,,,,,,,,,,,,,,,,,,,,,,21,Female,19,001,2021_Mar_10_1429,cal_abstract,2020.2.4,None,
,Fix2,stimuli/School/5.jpg,left,,,,,,,,,,,0,34,34,34,,,,,,,,,,,,,,,,,,,,,,,,,,,,,,,,,,,306.1063807409955,None,306.1063807409955,None,left,1,3.8921324049588293,306.1063807409955,None,1,310.0723114570137,None,,,,,,,,,,,,,,,,,,,,,,,,,,,,,,,,,,,,,,,,,,,,,,,,,,,,,,,,,,,,,,,,,,,21,Female,19,001,2021_Mar_10_1429,cal_abstract,2020.2.4,None,
,Fix2,stimuli/School/1.jpg,left,,,,,,,,,,,0,35,35,35,,,,,,,,,,,,,,,,,,,,,,,,,,,,,,,,,,,310.8618434399832,None,310.8618434399832,None,right,0,3.3251476690056734,310.8618434399832,None,0,314.22415051300777,None,,,,,,,,,,,,,,,,,,,,,,,,,,,,,,,,,,,,,,,,,,,,,,,,,,,,,,,,,,,,,,,,,,,21,Female,19,001,2021_Mar_10_1429,cal_abstract,2020.2.4,None,
,Cond,stimuli/Soft/9.jpg,right,,,,,,,,,,,0,36,36,36,,,,,,,,,,,,,,,,,,,,,,,,,,,,,,,,,,,315.02487985999323,None,315.02487985999323,None,left,0,7.0987044729990885,315.02487985999323,None,0,322.17269137798576,None,,,,,,,,,,,,,,,,,,,,,,,,,,,,,,,,,,,,,,,,,,,,,,,,,,,,,,,,,,,,,,,,,,,21,Female,19,001,2021_Mar_10_1429,cal_abstract,2020.2.4,None,
,Cond,stimuli/Soft/12.jpg,left,,,,,,,,,,,0,37,37,37,,,,,,,,,,,,,,,,,,,,,,,,,,,,,,,,,,,322.9566499769571,None,322.9566499769571,None,right,0,21.674300935002975,322.9566499769571,None,0,344.6756578699569,None,,,,,,,,,,,,,,,,,,,,,,,,,,,,,,,,,,,,,,,,,,,,,,,,,,,,,,,,,,,,,,,,,,,21,Female,19,001,2021_Mar_10_1429,cal_abstract,2020.2.4,None,
,Fix1,stimuli/Healthy/22.jpg,right,,,,,,,,,,,0,38,38,38,,,,,,,,,,,,,,,,,,,,,,,,,,,,,,,,,,,345.4910091999918,None,345.4910091999918,None,left,0,2.3468516059801914,345.4910091999918,None,0,347.8738195580081,None,,,,,,,,,,,,,,,,,,,,,,,,,,,,,,,,,,,,,,,,,,,,,,,,,,,,,,,,,,,,,,,,,,,21,Female,19,001,2021_Mar_10_1429,cal_abstract,2020.2.4,None,
,Cond,stimuli/Soft/50.jpg,left,,,,,,,,,,,0,39,39,39,,,,,,,,,,,,,,,,,,,,,,,,,,,,,,,,,,,348.6745061419788,None,348.6745061419788,None,left,1,2.2783600919647142,348.6745061419788,None,1,350.97654232097557,None,,,,,,,,,,,,,,,,,,,,,,,,,,,,,,,,,,,,,,,,,,,,,,,,,,,,,,,,,,,,,,,,,,,21,Female,19,001,2021_Mar_10_1429,cal_abstract,2020.2.4,None,
,Fix1,stimuli/Healthy/20.jpg,right,,,,,,,,,,,0,40,40,40,,,,,,,,,,,,,,,,,,,,,,,,,,,,,,,,,,,351.77501780499006,None,351.77501780499006,None,right,1,3.3945872339536436,351.77501780499006,None,1,355.20769914396806,None,,,,,,,,,,,,,,,,,,,,,,,,,,,,,,,,,,,,,,,,,,,,,,,,,,,,,,,,,,,,,,,,,,,21,Female,19,001,2021_Mar_10_1429,cal_abstract,2020.2.4,None,
,Fix2,stimuli/School/32.jpg,left,,,,,,,,,,,0,41,41,41,,,,,,,,,,,,,,,,,,,,,,,,,,,,,,,,,,,355.97526100696996,None,355.97526100696996,None,left,1,2.8966750020044856,355.97526100696996,None,1,358.9421542100026,None,,,,,,,,,,,,,,,,,,,,,,,,,,,,,,,,,,,,,,,,,,,,,,,,,,,,,,,,,,,,,,,,,,,21,Female,19,001,2021_Mar_10_1429,cal_abstract,2020.2.4,None,
,Fix1,stimuli/Healthy/5.jpg,right,,,,,,,,,,,0,42,42,42,,,,,,,,,,,,,,,,,,,,,,,,,,,,,,,,,,,359.79385899798945,None,359.79385899798945,None,left,0,3.8680921909981407,359.79385899798945,None,0,363.7336020079674,None,,,,,,,,,,,,,,,,,,,,,,,,,,,,,,,,,,,,,,,,,,,,,,,,,,,,,,,,,,,,,,,,,,,21,Female,19,001,2021_Mar_10_1429,cal_abstract,2020.2.4,None,
,Fix1,stimuli/Healthy/15.jpg,right,,,,,,,,,,,0,43,43,43,,,,,,,,,,,,,,,,,,,,,,,,,,,,,,,,,,,364.5242333599599,None,364.5242333599599,None,left,0,2.4978387560113333,364.5242333599599,None,0,367.09510445798514,None,,,,,,,,,,,,,,,,,,,,,,,,,,,,,,,,,,,,,,,,,,,,,,,,,,,,,,,,,,,,,,,,,,,21,Female,19,001,2021_Mar_10_1429,cal_abstract,2020.2.4,None,
,Fix1,stimuli/Healthy/61.jpg,right,,,,,,,,,,,0,44,44,44,,,,,,,,,,,,,,,,,,,,,,,,,,,,,,,,,,,367.8760114549659,None,367.8760114549659,None,right,1,2.722501475014724,367.8760114549659,None,1,370.67417281901,None,,,,,,,,,,,,,,,,,,,,,,,,,,,,,,,,,,,,,,,,,,,,,,,,,,,,,,,,,,,,,,,,,,,21,Female,19,001,2021_Mar_10_1429,cal_abstract,2020.2.4,None,
,Fix2,stimuli/School/55.jpg,left,,,,,,,,,,,0,45,45,45,,,,,,,,,,,,,,,,,,,,,,,,,,,,,,,,,,,371.42689253296703,None,371.42689253296703,None,right,0,5.066149582969956,371.42689253296703,None,0,376.54342057497706,None,,,,,,,,,,,,,,,,,,,,,,,,,,,,,,,,,,,,,,,,,,,,,,,,,,,,,,,,,,,,,,,,,,,21,Female,19,001,2021_Mar_10_1429,cal_abstract,2020.2.4,None,
,Cond,stimuli/Soft/52.jpg,right,,,,,,,,,,,0,46,46,46,,,,,,,,,,,,,,,,,,,,,,,,,,,,,,,,,,,377.3567856280133,None,377.3567856280133,None,left,0,2.824784529977478,377.3567856280133,None,0,380.2516365380143,None,,,,,,,,,,,,,,,,,,,,,,,,,,,,,,,,,,,,,,,,,,,,,,,,,,,,,,,,,,,,,,,,,,,21,Female,19,001,2021_Mar_10_1429,cal_abstract,2020.2.4,None,
,Fix2,stimuli/School/15.jpg,left,,,,,,,,,,,0,47,47,47,,,,,,,,,,,,,,,,,,,,,,,,,,,,,,,,,,,380.9903331269743,None,380.9903331269743,None,left,1,2.4667191480402835,380.9903331269743,None,1,383.5447431039647,None,,,,,,,,,,,,,,,,,,,,,,,,,,,,,,,,,,,,,,,,,,,,,,,,,,,,,,,,,,,,,,,,,,,21,Female,19,001,2021_Mar_10_1429,cal_abstract,2020.2.4,None,
,Fix2,stimuli/School/34.jpg,left,,,,,,,,,,,0,48,48,48,,,,,,,,,,,,,,,,,,,,,,,,,,,,,,,,,,,384.3247804690036,None,384.3247804690036,None,left,1,1.9361748729716055,384.3247804690036,None,1,386.32944272097666,None,,,,,,,,,,,,,,,,,,,,,,,,,,,,,,,,,,,,,,,,,,,,,,,,,,,,,,,,,,,,,,,,,,,21,Female,19,001,2021_Mar_10_1429,cal_abstract,2020.2.4,None,
,Fix2,stimuli/School/41.jpg,left,,,,,,,,,,,0,49,49,49,,,,,,,,,,,,,,,,,,,,,,,,,,,,,,,,,,,387.07411936100107,None,387.07411936100107,None,left,1,1.381728148960974,387.07411936100107,None,1,388.50517916399986,None,,,,,,,,,,,,,,,,,,,,,,,,,,,,,,,,,,,,,,,,,,,,,,,,,,,,,,,,,,,,,,,,,,,21,Female,19,001,2021_Mar_10_1429,cal_abstract,2020.2.4,None,
,Cond,stimuli/Soft/2.jpg,right,,,,,,,,,,,0,50,50,50,,,,,,,,,,,,,,,,,,,,,,,,,,,,,,,,,,,389.2905734439846,None,389.2905734439846,None,left,0,4.189916138013359,389.2905734439846,None,0,393.55723609996494,None,,,,,,,,,,,,,,,,,,,,,,,,,,,,,,,,,,,,,,,,,,,,,,,,,,,,,,,,,,,,,,,,,,,21,Female,19,001,2021_Mar_10_1429,cal_abstract,2020.2.4,None,
,Fix2,stimuli/School/40.jpg,left,,,,,,,,,,,0,51,51,51,,,,,,,,,,,,,,,,,,,,,,,,,,,,,,,,,,,394.32335434196284,None,394.32335434196284,None,left,1,1.800850444007665,394.32335434196284,None,1,396.1895381019567,None,,,,,,,,,,,,,,,,,,,,,,,,,,,,,,,,,,,,,,,,,,,,,,,,,,,,,,,,,,,,,,,,,,,21,Female,19,001,2021_Mar_10_1429,cal_abstract,2020.2.4,None,
,Fix2,stimuli/School/19.jpg,left,,,,,,,,,,,0,52,52,52,,,,,,,,,,,,,,,,,,,,,,,,,,,,,,,,,,,396.9251071509789,None,396.9251071509789,None,right,0,2.1518776239827275,396.9251071509789,None,0,399.12754265399417,None,,,,,,,,,,,,,,,,,,,,,,,,,,,,,,,,,,,,,,,,,,,,,,,,,,,,,,,,,,,,,,,,,,,21,Female,19,001,2021_Mar_10_1429,cal_abstract,2020.2.4,None,
,Cond,stimuli/Soft/51.jpg,right,,,,,,,,,,,0,53,53,53,,,,,,,,,,,,,,,,,,,,,,,,,,,,,,,,,,,399.9901713609579,None,399.9901713609579,None,right,1,2.461792935966514,399.9901713609579,None,1,402.5253404940013,None,,,,,,,,,,,,,,,,,,,,,,,,,,,,,,,,,,,,,,,,,,,,,,,,,,,,,,,,,,,,,,,,,,,21,Female,19,001,2021_Mar_10_1429,cal_abstract,2020.2.4,None,
,Fix1,stimuli/Healthy/23.jpg,right,,,,,,,,,,,0,54,54,54,,,,,,,,,,,,,,,,,,,,,,,,,,,,,,,,,,,403.32494229997974,None,403.32494229997974,None,right,1,2.552691182005219,403.32494229997974,None,1,405.9101786320098,None,,,,,,,,,,,,,,,,,,,,,,,,,,,,,,,,,,,,,,,,,,,,,,,,,,,,,,,,,,,,,,,,,,,21,Female,19,001,2021_Mar_10_1429,cal_abstract,2020.2.4,None,
,Fix1,stimuli/Healthy/67.jpg,right,,,,,,,,,,,0,55,55,55,,,,,,,,,,,,,,,,,,,,,,,,,,,,,,,,,,,406.68053069198504,None,406.68053069198504,None,right,1,1.5092880990123376,406.68053069198504,None,1,408.2406252310029,None,,,,,,,,,,,,,,,,,,,,,,,,,,,,,,,,,,,,,,,,,,,,,,,,,,,,,,,,,,,,,,,,,,,21,Female,19,001,2021_Mar_10_1429,cal_abstract,2020.2.4,None,
,Fix1,stimuli/Healthy/38.jpg,right,,,,,,,,,,,0,56,56,56,,,,,,,,,,,,,,,,,,,,,,,,,,,,,,,,,,,409.0400939490064,None,409.0400939490064,None,left,0,2.2652439390076324,409.0400939490064,None,0,411.3746533129597,None,,,,,,,,,,,,,,,,,,,,,,,,,,,,,,,,,,,,,,,,,,,,,,,,,,,,,,,,,,,,,,,,,,,21,Female,19,001,2021_Mar_10_1429,cal_abstract,2020.2.4,None,
,Fix2,stimuli/School/26.jpg,left,,,,,,,,,,,0,57,57,57,,,,,,,,,,,,,,,,,,,,,,,,,,,,,,,,,,,412.13956672500353,None,412.13956672500353,None,right,0,1.985674971016124,412.13956672500353,None,0,414.20659516198793,None,,,,,,,,,,,,,,,,,,,,,,,,,,,,,,,,,,,,,,,,,,,,,,,,,,,,,,,,,,,,,,,,,,,21,Female,19,001,2021_Mar_10_1429,cal_abstract,2020.2.4,None,
,Fix1,stimuli/Healthy/6.jpg,right,,,,,,,,,,,0,58,58,58,,,,,,,,,,,,,,,,,,,,,,,,,,,,,,,,,,,415.03844691900304,None,415.03844691900304,None,right,1,2.352833990007639,415.03844691900304,None,1,417.45536518195877,None,,,,,,,,,,,,,,,,,,,,,,,,,,,,,,,,,,,,,,,,,,,,,,,,,,,,,,,,,,,,,,,,,,,21,Female,19,001,2021_Mar_10_1429,cal_abstract,2020.2.4,None,
,Fix1,stimuli/Healthy/0.jpg,right,,,,,,,,,,,0,59,59,59,,,,,,,,,,,,,,,,,,,,,,,,,,,,,,,,,,,418.19570298097096,None,418.19570298097096,None,right,1,1.7193692940054461,418.19570298097096,None,1,419.9849749119603,None,,,,,,,,,,,,,,,,,,,,,,,,,,,,,,,,,,,,,,,,,,,,,,,,,,,,,,,,,,,,,,,,,,,21,Female,19,001,2021_Mar_10_1429,cal_abstract,2020.2.4,None,
,Fix1,stimuli/Healthy/31.jpg,right,,,,,,,,,,,0,60,60,60,,,,,,,,,,,,,,,,,,,,,,,,,,,,,,,,,,,420.7567621549824,None,420.7567621549824,None,left,0,2.500176551984623,420.7567621549824,None,0,423.29004207998514,None,,,,,,,,,,,,,,,,,,,,,,,,,,,,,,,,,,,,,,,,,,,,,,,,,,,,,,,,,,,,,,,,,,,21,Female,19,001,2021_Mar_10_1429,cal_abstract,2020.2.4,None,
,Cond,stimuli/Soft/29.jpg,left,,,,,,,,,,,0,61,61,61,,,,,,,,,,,,,,,,,,,,,,,,,,,,,,,,,,,424.1235400559963,None,424.1235400559963,None,left,1,2.1672887760214508,424.1235400559963,None,1,426.32291568396613,None,,,,,,,,,,,,,,,,,,,,,,,,,,,,,,,,,,,,,,,,,,,,,,,,,,,,,,,,,,,,,,,,,,,21,Female,19,001,2021_Mar_10_1429,cal_abstract,2020.2.4,None,
,Cond,stimuli/Soft/31.jpg,right,,,,,,,,,,,0,62,62,62,,,,,,,,,,,,,,,,,,,,,,,,,,,,,,,,,,,427.1110404289793,None,427.1110404289793,None,left,0,1.5016980800428428,427.1110404289793,None,0,428.6581070990069,None,,,,,,,,,,,,,,,,,,,,,,,,,,,,,,,,,,,,,,,,,,,,,,,,,,,,,,,,,,,,,,,,,,,21,Female,19,001,2021_Mar_10_1429,cal_abstract,2020.2.4,None,
,Fix1,stimuli/Healthy/48.jpg,right,,,,,,,,,,,0,63,63,63,,,,,,,,,,,,,,,,,,,,,,,,,,,,,,,,,,,429.51758250396233,None,429.51758250396233,None,right,1,3.084050183009822,429.51758250396233,None,1,432.6556702280068,None,,,,,,,,,,,,,,,,,,,,,,,,,,,,,,,,,,,,,,,,,,,,,,,,,,,,,,,,,,,,,,,,,,,21,Female,19,001,2021_Mar_10_1429,cal_abstract,2020.2.4,None,
,Cond,stimuli/Soft/26.jpg,left,,,,,,,,,,,0,64,64,64,,,,,,,,,,,,,,,,,,,,,,,,,,,,,,,,,,,433.4400871699909,None,433.4400871699909,None,right,0,2.309774124994874,433.4400871699909,None,0,435.82336948096054,None,,,,,,,,,,,,,,,,,,,,,,,,,,,,,,,,,,,,,,,,,,,,,,,,,,,,,,,,,,,,,,,,,,,21,Female,19,001,2021_Mar_10_1429,cal_abstract,2020.2.4,None,
,Fix1,stimuli/Healthy/53.jpg,right,,,,,,,,,,,0,65,65,65,,,,,,,,,,,,,,,,,,,,,,,,,,,,,,,,,,,436.56049937097123,None,436.56049937097123,None,left,0,1.7318750400445424,436.56049937097123,None,0,438.3417312859674,None,,,,,,,,,,,,,,,,,,,,,,,,,,,,,,,,,,,,,,,,,,,,,,,,,,,,,,,,,,,,,,,,,,,21,Female,19,001,2021_Mar_10_1429,cal_abstract,2020.2.4,None,
,Fix1,stimuli/Healthy/17.jpg,right,,,,,,,,,,,0,66,66,66,,,,,,,,,,,,,,,,,,,,,,,,,,,,,,,,,,,439.1231645619846,None,439.1231645619846,None,right,1,2.1812971379840747,439.1231645619846,None,1,441.3608230680111,None,,,,,,,,,,,,,,,,,,,,,,,,,,,,,,,,,,,,,,,,,,,,,,,,,,,,,,,,,,,,,,,,,,,21,Female,19,001,2021_Mar_10_1429,cal_abstract,2020.2.4,None,
,Cond,stimuli/Soft/45.jpg,left,,,,,,,,,,,0,67,67,67,,,,,,,,,,,,,,,,,,,,,,,,,,,,,,,,,,,442.15696020098403,None,442.15696020098403,None,left,1,2.0592866020160727,442.15696020098403,None,1,444.27146792795975,None,,,,,,,,,,,,,,,,,,,,,,,,,,,,,,,,,,,,,,,,,,,,,,,,,,,,,,,,,,,,,,,,,,,21,Female,19,001,2021_Mar_10_1429,cal_abstract,2020.2.4,None,
,Fix2,stimuli/School/28.jpg,left,,,,,,,,,,,0,68,68,68,,,,,,,,,,,,,,,,,,,,,,,,,,,,,,,,,,,445.0735670449794,None,445.0735670449794,None,right,0,2.8592545699793845,445.0735670449794,None,0,447.9904940899578,None,,,,,,,,,,,,,,,,,,,,,,,,,,,,,,,,,,,,,,,,,,,,,,,,,,,,,,,,,,,,,,,,,,,21,Female,19,001,2021_Mar_10_1429,cal_abstract,2020.2.4,None,
,Fix1,stimuli/Healthy/25.jpg,right,,,,,,,,,,,0,69,69,69,,,,,,,,,,,,,,,,,,,,,,,,,,,,,,,,,,,448.76416436198633,None,448.76416436198633,None,left,0,2.0494586399872787,448.76416436198633,None,0,450.85535562899895,None,,,,,,,,,,,,,,,,,,,,,,,,,,,,,,,,,,,,,,,,,,,,,,,,,,,,,,,,,,,,,,,,,,,21,Female,19,001,2021_Mar_10_1429,cal_abstract,2020.2.4,None,
,Fix1,stimuli/Healthy/55.jpg,right,,,,,,,,,,,0,70,70,70,,,,,,,,,,,,,,,,,,,,,,,,,,,,,,,,,,,451.63873165100813,None,451.63873165100813,None,left,0,2.198005319980439,451.63873165100813,None,0,453.90524254500633,None,,,,,,,,,,,,,,,,,,,,,,,,,,,,,,,,,,,,,,,,,,,,,,,,,,,,,,,,,,,,,,,,,,,21,Female,19,001,2021_Mar_10_1429,cal_abstract,2020.2.4,None,
,Cond,stimuli/Soft/4.jpg,left,,,,,,,,,,,0,71,71,71,,,,,,,,,,,,,,,,,,,,,,,,,,,,,,,,,,,454.6552789179841,None,454.6552789179841,None,left,1,1.7224018079577945,454.6552789179841,None,1,456.42529149900656,None,,,,,,,,,,,,,,,,,,,,,,,,,,,,,,,,,,,,,,,,,,,,,,,,,,,,,,,,,,,,,,,,,,,21,Female,19,001,2021_Mar_10_1429,cal_abstract,2020.2.4,None,
,Fix1,stimuli/Healthy/7.jpg,right,,,,,,,,,,,0,72,72,72,,,,,,,,,,,,,,,,,,,,,,,,,,,,,,,,,,,457.2043722620001,None,457.2043722620001,None,left,0,2.3680642239633016,457.2043722620001,None,0,459.6382342039724,None,,,,,,,,,,,,,,,,,,,,,,,,,,,,,,,,,,,,,,,,,,,,,,,,,,,,,,,,,,,,,,,,,,,21,Female,19,001,2021_Mar_10_1429,cal_abstract,2020.2.4,None,
,Fix1,stimuli/Healthy/47.jpg,right,,,,,,,,,,,0,73,73,73,,,,,,,,,,,,,,,,,,,,,,,,,,,,,,,,,,,460.4251928679878,None,460.4251928679878,None,right,1,1.9222455659764819,460.4251928679878,None,1,462.37547778798034,None,,,,,,,,,,,,,,,,,,,,,,,,,,,,,,,,,,,,,,,,,,,,,,,,,,,,,,,,,,,,,,,,,,,21,Female,19,001,2021_Mar_10_1429,cal_abstract,2020.2.4,None,
,Fix2,stimuli/School/38.jpg,left,,,,,,,,,,,0,74,74,74,,,,,,,,,,,,,,,,,,,,,,,,,,,,,,,,,,,463.1726963929832,None,463.1726963929832,None,right,0,2.727579035970848,463.1726963929832,None,0,465.9556751829805,None,,,,,,,,,,,,,,,,,,,,,,,,,,,,,,,,,,,,,,,,,,,,,,,,,,,,,,,,,,,,,,,,,,,21,Female,19,001,2021_Mar_10_1429,cal_abstract,2020.2.4,None,
,Cond,stimuli/Soft/1.jpg,right,,,,,,,,,,,0,75,75,75,,,,,,,,,,,,,,,,,,,,,,,,,,,,,,,,,,,466.7564148049569,None,466.7564148049569,None,left,0,1.6966389510198496,466.7564148049569,None,0,468.52138886397006,None,,,,,,,,,,,,,,,,,,,,,,,,,,,,,,,,,,,,,,,,,,,,,,,,,,,,,,,,,,,,,,,,,,,21,Female,19,001,2021_Mar_10_1429,cal_abstract,2020.2.4,None,
,Fix2,stimuli/School/22.jpg,left,,,,,,,,,,,0,76,76,76,,,,,,,,,,,,,,,,,,,,,,,,,,,,,,,,,,,469.2603157639969,None,469.2603157639969,None,left,1,3.1129586820024997,469.2603157639969,None,1,472.40984071296407,None,,,,,,,,,,,,,,,,,,,,,,,,,,,,,,,,,,,,,,,,,,,,,,,,,,,,,,,,,,,,,,,,,,,21,Female,19,001,2021_Mar_10_1429,cal_abstract,2020.2.4,None,
,Fix2,stimuli/School/49.jpg,left,,,,,,,,,,,0,77,77,77,,,,,,,,,,,,,,,,,,,,,,,,,,,,,,,,,,,473.2273445739993,None,473.2273445739993,None,right,0,2.5927603429881856,473.2273445739993,None,0,475.8549145839643,None,,,,,,,,,,,,,,,,,,,,,,,,,,,,,,,,,,,,,,,,,,,,,,,,,,,,,,,,,,,,,,,,,,,21,Female,19,001,2021_Mar_10_1429,cal_abstract,2020.2.4,None,
,Cond,stimuli/Soft/48.jpg,right,,,,,,,,,,,0,78,78,78,,,,,,,,,,,,,,,,,,,,,,,,,,,,,,,,,,,476.68810260196915,None,476.68810260196915,None,left,0,3.0603555879788473,476.68810260196915,None,0,479.77453304396477,None,,,,,,,,,,,,,,,,,,,,,,,,,,,,,,,,,,,,,,,,,,,,,,,,,,,,,,,,,,,,,,,,,,,21,Female,19,001,2021_Mar_10_1429,cal_abstract,2020.2.4,None,
,Cond,stimuli/Soft/56.jpg,left,,,,,,,,,,,0,79,79,79,,,,,,,,,,,,,,,,,,,,,,,,,,,,,,,,,,,480.57196593796834,None,480.57196593796834,None,left,1,4.287607534031849,480.57196593796834,None,1,484.9388858039747,None,,,,,,,,,,,,,,,,,,,,,,,,,,,,,,,,,,,,,,,,,,,,,,,,,,,,,,,,,,,,,,,,,,,21,Female,19,001,2021_Mar_10_1429,cal_abstract,2020.2.4,None,
,Fix1,stimuli/Healthy/28.jpg,right,,,,,,,,,,,0,80,80,80,,,,,,,,,,,,,,,,,,,,,,,,,,,,,,,,,,,485.7393047439982,None,485.7393047439982,None,right,1,3.5924910019966774,485.7393047439982,None,1,489.3739412300056,None,,,,,,,,,,,,,,,,,,,,,,,,,,,,,,,,,,,,,,,,,,,,,,,,,,,,,,,,,,,,,,,,,,,21,Female,19,001,2021_Mar_10_1429,cal_abstract,2020.2.4,None,
,Cond,stimuli/Soft/40.jpg,left,,,,,,,,,,,0,81,81,81,,,,,,,,,,,,,,,,,,,,,,,,,,,,,,,,,,,490.18904147000285,None,490.18904147000285,None,left,1,1.6259206190006807,490.18904147000285,None,1,491.8889780860045,None,,,,,,,,,,,,,,,,,,,,,,,,,,,,,,,,,,,,,,,,,,,,,,,,,,,,,,,,,,,,,,,,,,,21,Female,19,001,2021_Mar_10_1429,cal_abstract,2020.2.4,None,
,Fix1,stimuli/Healthy/68.jpg,right,,,,,,,,,,,0,82,82,82,,,,,,,,,,,,,,,,,,,,,,,,,,,,,,,,,,,492.62285009695916,None,492.62285009695916,None,right,1,1.8139256840222515,492.62285009695916,None,1,494.50599539797986,None,,,,,,,,,,,,,,,,,,,,,,,,,,,,,,,,,,,,,,,,,,,,,,,,,,,,,,,,,,,,,,,,,,,21,Female,19,001,2021_Mar_10_1429,cal_abstract,2020.2.4,None,
,Fix2,stimuli/School/30.jpg,left,,,,,,,,,,,0,83,83,83,,,,,,,,,,,,,,,,,,,,,,,,,,,,,,,,,,,495.23962577199563,None,495.23962577199563,None,left,1,2.632997352979146,495.23962577199563,None,1,497.92560355796013,None,,,,,,,,,,,,,,,,,,,,,,,,,,,,,,,,,,,,,,,,,,,,,,,,,,,,,,,,,,,,,,,,,,,21,Female,19,001,2021_Mar_10_1429,cal_abstract,2020.2.4,None,
,Cond,stimuli/Soft/13.jpg,right,,,,,,,,,,,0,84,84,84,,,,,,,,,,,,,,,,,,,,,,,,,,,,,,,,,,,498.73781695601065,None,498.73781695601065,None,left,0,3.3971965920063667,498.73781695601065,None,0,502.19157870596973,None,,,,,,,,,,,,,,,,,,,,,,,,,,,,,,,,,,,,,,,,,,,,,,,,,,,,,,,,,,,,,,,,,,,21,Female,19,001,2021_Mar_10_1429,cal_abstract,2020.2.4,None,
,Fix2,stimuli/School/2.jpg,left,,,,,,,,,,,0,85,85,85,,,,,,,,,,,,,,,,,,,,,,,,,,,,,,,,,,,502.98049775499385,None,502.98049775499385,None,left,1,1.7824394009658135,502.98049775499385,None,1,504.82141653698636,None,,,,,,,,,,,,,,,,,,,,,,,,,,,,,,,,,,,,,,,,,,,,,,,,,,,,,,,,,,,,,,,,,,,21,Female,19,001,2021_Mar_10_1429,cal_abstract,2020.2.4,None,
,Cond,stimuli/Soft/32.jpg,right,,,,,,,,,,,0,86,86,86,,,,,,,,,,,,,,,,,,,,,,,,,,,,,,,,,,,505.6131587509881,None,505.6131587509881,None,right,1,1.5605948389857076,505.6131587509881,None,1,507.2050453099655,None,,,,,,,,,,,,,,,,,,,,,,,,,,,,,,,,,,,,,,,,,,,,,,,,,,,,,,,,,,,,,,,,,,,21,Female,19,001,2021_Mar_10_1429,cal_abstract,2020.2.4,None,
,Cond,stimuli/Soft/58.jpg,left,,,,,,,,,,,0,87,87,87,,,,,,,,,,,,,,,,,,,,,,,,,,,,,,,,,,,507.9953764579841,None,507.9953764579841,None,left,1,1.8311843340052292,507.9953764579841,None,1,509.8878725129762,None,,,,,,,,,,,,,,,,,,,,,,,,,,,,,,,,,,,,,,,,,,,,,,,,,,,,,,,,,,,,,,,,,,,21,Female,19,001,2021_Mar_10_1429,cal_abstract,2020.2.4,None,
,Fix1,stimuli/Healthy/51.jpg,right,,,,,,,,,,,0,88,88,88,,,,,,,,,,,,,,,,,,,,,,,,,,,,,,,,,,,510.7046778649674,None,510.7046778649674,None,right,1,2.5047574379714206,510.7046778649674,None,1,513.242056699004,None,,,,,,,,,,,,,,,,,,,,,,,,,,,,,,,,,,,,,,,,,,,,,,,,,,,,,,,,,,,,,,,,,,,21,Female,19,001,2021_Mar_10_1429,cal_abstract,2020.2.4,None,
,Cond,stimuli/Soft/10.jpg,left,,,,,,,,,,,0,89,89,89,,,,,,,,,,,,,,,,,,,,,,,,,,,,,,,,,,,514.0397081529954,None,514.0397081529954,None,left,1,1.538867653987836,514.0397081529954,None,1,515.6039661369869,None,,,,,,,,,,,,,,,,,,,,,,,,,,,,,,,,,,,,,,,,,,,,,,,,,,,,,,,,,,,,,,,,,,,21,Female,19,001,2021_Mar_10_1429,cal_abstract,2020.2.4,None,
,Cond,stimuli/Soft/27.jpg,right,,,,,,,,,,,0,90,90,90,,,,,,,,,,,,,,,,,,,,,,,,,,,,,,,,,,,516.388384914957,None,516.388384914957,None,left,0,3.871366224018857,516.388384914957,None,0,520.2912162229768,None,,,,,,,,,,,,,,,,,,,,,,,,,,,,,,,,,,,,,,,,,,,,,,,,,,,,,,,,,,,,,,,,,,,21,Female,19,001,2021_Mar_10_1429,cal_abstract,2020.2.4,None,
,Cond,stimuli/Soft/30.jpg,left,,,,,,,,,,,0,91,91,91,,,,,,,,,,,,,,,,,,,,,,,,,,,,,,,,,,,521.1732608010061,None,521.1732608010061,None,left,1,1.695238824991975,521.1732608010061,None,1,522.9380084369914,None,,,,,,,,,,,,,,,,,,,,,,,,,,,,,,,,,,,,,,,,,,,,,,,,,,,,,,,,,,,,,,,,,,,21,Female,19,001,2021_Mar_10_1429,cal_abstract,2020.2.4,None,
,Cond,stimuli/Soft/8.jpg,right,,,,,,,,,,,0,92,92,92,,,,,,,,,,,,,,,,,,,,,,,,,,,,,,,,,,,523.6904313889681,None,523.6904313889681,None,left,0,2.425072532030754,523.6904313889681,None,0,526.1749914009706,None,,,,,,,,,,,,,,,,,,,,,,,,,,,,,,,,,,,,,,,,,,,,,,,,,,,,,,,,,,,,,,,,,,,21,Female,19,001,2021_Mar_10_1429,cal_abstract,2020.2.4,None,
,Cond,stimuli/Soft/46.jpg,left,,,,,,,,,,,0,93,93,93,,,,,,,,,,,,,,,,,,,,,,,,,,,,,,,,,,,526.9883098599967,None,526.9883098599967,None,right,0,1.855053653998766,526.9883098599967,None,0,528.9434000200126,None,,,,,,,,,,,,,,,,,,,,,,,,,,,,,,,,,,,,,,,,,,,,,,,,,,,,,,,,,,,,,,,,,,,21,Female,19,001,2021_Mar_10_1429,cal_abstract,2020.2.4,None,
,Fix1,stimuli/Healthy/2.jpg,right,,,,,,,,,,,0,94,94,94,,,,,,,,,,,,,,,,,,,,,,,,,,,,,,,,,,,529.6933667899575,None,529.6933667899575,None,left,0,3.7345147089799866,529.6933667899575,None,0,533.488077115966,None,,,,,,,,,,,,,,,,,,,,,,,,,,,,,,,,,,,,,,,,,,,,,,,,,,,,,,,,,,,,,,,,,,,21,Female,19,001,2021_Mar_10_1429,cal_abstract,2020.2.4,None,
,Fix1,stimuli/Healthy/30.jpg,right,,,,,,,,,,,0,95,95,95,,,,,,,,,,,,,,,,,,,,,,,,,,,,,,,,,,,534.3050856330083,None,534.3050856330083,None,right,1,1.5245799570111558,534.3050856330083,None,1,535.8730481739622,None,,,,,,,,,,,,,,,,,,,,,,,,,,,,,,,,,,,,,,,,,,,,,,,,,,,,,,,,,,,,,,,,,,,21,Female,19,001,2021_Mar_10_1429,cal_abstract,2020.2.4,None,
,Cond,stimuli/Soft/15.jpg,left,,,,,,,,,,,0,96,96,96,,,,,,,,,,,,,,,,,,,,,,,,,,,,,,,,,,,536.6549186219927,None,536.6549186219927,None,left,1,1.7955493290210143,536.6549186219927,None,1,538.5379538270063,None,,,,,,,,,,,,,,,,,,,,,,,,,,,,,,,,,,,,,,,,,,,,,,,,,,,,,,,,,,,,,,,,,,,21,Female,19,001,2021_Mar_10_1429,cal_abstract,2020.2.4,None,
,Fix1,stimuli/Healthy/12.jpg,right,,,,,,,,,,,0,97,97,97,,,,,,,,,,,,,,,,,,,,,,,,,,,,,,,,,,,539.3397714269813,None,539.3397714269813,None,right,1,2.595544155978132,539.3397714269813,None,1,541.960491034959,None,,,,,,,,,,,,,,,,,,,,,,,,,,,,,,,,,,,,,,,,,,,,,,,,,,,,,,,,,,,,,,,,,,,21,Female,19,001,2021_Mar_10_1429,cal_abstract,2020.2.4,None,
,Fix1,stimuli/Healthy/26.jpg,right,,,,,,,,,,,0,98,98,98,,,,,,,,,,,,,,,,,,,,,,,,,,,,,,,,,,,542.755407671968,None,542.755407671968,None,left,0,1.9476546950172633,542.755407671968,None,0,544.7544437869801,None,,,,,,,,,,,,,,,,,,,,,,,,,,,,,,,,,,,,,,,,,,,,,,,,,,,,,,,,,,,,,,,,,,,21,Female,19,001,2021_Mar_10_1429,cal_abstract,2020.2.4,None,
,Fix1,stimuli/Healthy/4.jpg,right,,,,,,,,,,,0,99,99,99,,,,,,,,,,,,,,,,,,,,,,,,,,,,,,,,,,,545.5548348969896,None,545.5548348969896,None,right,1,2.0851374830235727,545.5548348969896,None,1,547.7056773079676,None,,,,,,,,,,,,,,,,,,,,,,,,,,,,,,,,,,,,,,,,,,,,,,,,,,,,,,,,,,,,,,,,,,,21,Female,19,001,2021_Mar_10_1429,cal_abstract,2020.2.4,None,
,Fix2,stimuli/School/35.jpg,left,,,,,,,,,,,0,100,100,100,,,,,,,,,,,,,,,,,,,,,,,,,,,,,,,,,,,548.488423222967,None,548.488423222967,None,left,1,2.4454299969947897,548.488423222967,None,1,550.9713808929664,None,,,,,,,,,,,,,,,,,,,,,,,,,,,,,,,,,,,,,,,,,,,,,,,,,,,,,,,,,,,,,,,,,,,21,Female,19,001,2021_Mar_10_1429,cal_abstract,2020.2.4,None,
,Fix1,stimuli/Healthy/60.jpg,right,,,,,,,,,,,0,101,101,101,,,,,,,,,,,,,,,,,,,,,,,,,,,,,,,,,,,551.7696876869886,None,551.7696876869886,None,left,0,1.8811775110079907,551.7696876869886,None,0,553.671507912979,None,,,,,,,,,,,,,,,,,,,,,,,,,,,,,,,,,,,,,,,,,,,,,,,,,,,,,,,,,,,,,,,,,,,21,Female,19,001,2021_Mar_10_1429,cal_abstract,2020.2.4,None,
,Fix2,stimuli/School/31.jpg,left,,,,,,,,,,,0,102,102,102,,,,,,,,,,,,,,,,,,,,,,,,,,,,,,,,,,,554.4371742869844,None,554.4371742869844,None,left,1,1.3055454170098528,554.4371742869844,None,1,555.8058313739602,None,,,,,,,,,,,,,,,,,,,,,,,,,,,,,,,,,,,,,,,,,,,,,,,,,,,,,,,,,,,,,,,,,,,21,Female,19,001,2021_Mar_10_1429,cal_abstract,2020.2.4,None,
,Fix2,stimuli/School/7.jpg,left,,,,,,,,,,,0,103,103,103,,,,,,,,,,,,,,,,,,,,,,,,,,,,,,,,,,,556.6210908329813,None,556.6210908329813,None,left,1,1.425563525990583,556.6210908329813,None,1,558.1028806449613,None,,,,,,,,,,,,,,,,,,,,,,,,,,,,,,,,,,,,,,,,,,,,,,,,,,,,,,,,,,,,,,,,,,,21,Female,19,001,2021_Mar_10_1429,cal_abstract,2020.2.4,None,
,Fix2,stimuli/School/57.jpg,left,,,,,,,,,,,0,104,104,104,,,,,,,,,,,,,,,,,,,,,,,,,,,,,,,,,,,558.8884596059797,None,558.8884596059797,None,right,0,2.326359065948054,558.8884596059797,None,0,561.2544304750045,None,,,,,,,,,,,,,,,,,,,,,,,,,,,,,,,,,,,,,,,,,,,,,,,,,,,,,,,,,,,,,,,,,,,21,Female,19,001,2021_Mar_10_1429,cal_abstract,2020.2.4,None,
,Cond,stimuli/Soft/35.jpg,right,,,,,,,,,,,0,105,105,105,,,,,,,,,,,,,,,,,,,,,,,,,,,,,,,,,,,562.104493183957,None,562.104493183957,None,left,0,1.9059952049865387,562.104493183957,None,0,564.0706296429853,None,,,,,,,,,,,,,,,,,,,,,,,,,,,,,,,,,,,,,,,,,,,,,,,,,,,,,,,,,,,,,,,,,,,21,Female,19,001,2021_Mar_10_1429,cal_abstract,2020.2.4,None,
,Fix1,stimuli/Healthy/18.jpg,right,,,,,,,,,,,0,106,106,106,,,,,,,,,,,,,,,,,,,,,,,,,,,,,,,,,,,564.8387710200041,None,564.8387710200041,None,right,1,1.829581938975025,564.8387710200041,None,1,566.7080852930085,None,,,,,,,,,,,,,,,,,,,,,,,,,,,,,,,,,,,,,,,,,,,,,,,,,,,,,,,,,,,,,,,,,,,21,Female,19,001,2021_Mar_10_1429,cal_abstract,2020.2.4,None,
,Fix1,stimuli/Healthy/34.jpg,right,,,,,,,,,,,0,107,107,107,,,,,,,,,,,,,,,,,,,,,,,,,,,,,,,,,,,567.5251465099864,None,567.5251465099864,None,right,1,1.6444788450025953,567.5251465099864,None,1,569.238334950991,None,,,,,,,,,,,,,,,,,,,,,,,,,,,,,,,,,,,,,,,,,,,,,,,,,,,,,,,,,,,,,,,,,,,21,Female,19,001,2021_Mar_10_1429,cal_abstract,2020.2.4,None,
,Fix1,stimuli/Healthy/13.jpg,right,,,,,,,,,,,0,108,108,108,,,,,,,,,,,,,,,,,,,,,,,,,,,,,,,,,,,570.09018142696,None,570.09018142696,None,right,1,2.3460487330448814,570.09018142696,None,1,572.4869432169944,None,,,,,,,,,,,,,,,,,,,,,,,,,,,,,,,,,,,,,,,,,,,,,,,,,,,,,,,,,,,,,,,,,,,21,Female,19,001,2021_Mar_10_1429,cal_abstract,2020.2.4,None,
,Fix1,stimuli/Healthy/10.jpg,right,,,,,,,,,,,0,109,109,109,,,,,,,,,,,,,,,,,,,,,,,,,,,,,,,,,,,573.3501524410094,None,573.3501524410094,None,left,0,2.9796487289713696,573.3501524410094,None,0,576.3879825549666,None,,,,,,,,,,,,,,,,,,,,,,,,,,,,,,,,,,,,,,,,,,,,,,,,,,,,,,,,,,,,,,,,,,,21,Female,19,001,2021_Mar_10_1429,cal_abstract,2020.2.4,None,
,Cond,stimuli/Soft/36.jpg,left,,,,,,,,,,,0,110,110,110,,,,,,,,,,,,,,,,,,,,,,,,,,,,,,,,,,,577.1719211330055,None,577.1719211330055,None,right,0,2.9670641029952094,577.1719211330055,None,0,580.2111156239989,None,,,,,,,,,,,,,,,,,,,,,,,,,,,,,,,,,,,,,,,,,,,,,,,,,,,,,,,,,,,,,,,,,,,21,Female,19,001,2021_Mar_10_1429,cal_abstract,2020.2.4,None,
,Fix1,stimuli/Healthy/36.jpg,right,,,,,,,,,,,0,111,111,111,,,,,,,,,,,,,,,,,,,,,,,,,,,,,,,,,,,580.9873096589581,None,580.9873096589581,None,right,1,3.3530317110125907,580.9873096589581,None,1,584.403512556979,None,,,,,,,,,,,,,,,,,,,,,,,,,,,,,,,,,,,,,,,,,,,,,,,,,,,,,,,,,,,,,,,,,,,21,Female,19,001,2021_Mar_10_1429,cal_abstract,2020.2.4,None,
,Fix2,stimuli/School/10.jpg,left,,,,,,,,,,,0,112,112,112,,,,,,,,,,,,,,,,,,,,,,,,,,,,,,,,,,,585.2046637719613,None,585.2046637719613,None,left,1,1.4162473649485037,585.2046637719613,None,1,586.6585025339737,None,,,,,,,,,,,,,,,,,,,,,,,,,,,,,,,,,,,,,,,,,,,,,,,,,,,,,,,,,,,,,,,,,,,21,Female,19,001,2021_Mar_10_1429,cal_abstract,2020.2.4,None,
,Cond,stimuli/Soft/39.jpg,right,,,,,,,,,,,0,113,113,113,,,,,,,,,,,,,,,,,,,,,,,,,,,,,,,,,,,587.4392525340081,None,587.4392525340081,None,right,1,2.562654031033162,587.4392525340081,None,1,590.0644762839656,None,,,,,,,,,,,,,,,,,,,,,,,,,,,,,,,,,,,,,,,,,,,,,,,,,,,,,,,,,,,,,,,,,,,21,Female,19,001,2021_Mar_10_1429,cal_abstract,2020.2.4,None,
,Fix2,stimuli/School/8.jpg,left,,,,,,,,,,,0,114,114,114,,,,,,,,,,,,,,,,,,,,,,,,,,,,,,,,,,,590.8549007470137,None,590.8549007470137,None,left,1,1.4300682009779848,590.8549007470137,None,1,592.339810579957,None,,,,,,,,,,,,,,,,,,,,,,,,,,,,,,,,,,,,,,,,,,,,,,,,,,,,,,,,,,,,,,,,,,,21,Female,19,001,2021_Mar_10_1429,cal_abstract,2020.2.4,None,
,Cond,stimuli/Soft/5.jpg,right,,,,,,,,,,,0,115,115,115,,,,,,,,,,,,,,,,,,,,,,,,,,,,,,,,,,,593.139028096979,None,593.139028096979,None,left,0,3.2990199960186146,593.139028096979,None,0,596.5200654660002,None,,,,,,,,,,,,,,,,,,,,,,,,,,,,,,,,,,,,,,,,,,,,,,,,,,,,,,,,,,,,,,,,,,,21,Female,19,001,2021_Mar_10_1429,cal_abstract,2020.2.4,None,
,Cond,stimuli/Soft/0.jpg,left,,,,,,,,,,,0,116,116,116,,,,,,,,,,,,,,,,,,,,,,,,,,,,,,,,,,,597.3046912379796,None,597.3046912379796,None,left,1,1.713930330995936,597.3046912379796,None,1,599.120911585982,None,,,,,,,,,,,,,,,,,,,,,,,,,,,,,,,,,,,,,,,,,,,,,,,,,,,,,,,,,,,,,,,,,,,21,Female,19,001,2021_Mar_10_1429,cal_abstract,2020.2.4,None,
,Fix1,stimuli/Healthy/64.jpg,right,,,,,,,,,,,0,117,117,117,,,,,,,,,,,,,,,,,,,,,,,,,,,,,,,,,,,599.9592171789845,None,599.9592171789845,None,right,1,2.1884113189880736,599.9592171789845,None,1,602.2075935410103,None,,,,,,,,,,,,,,,,,,,,,,,,,,,,,,,,,,,,,,,,,,,,,,,,,,,,,,,,,,,,,,,,,,,21,Female,19,001,2021_Mar_10_1429,cal_abstract,2020.2.4,None,
,Cond,stimuli/Soft/25.jpg,left,,,,,,,,,,,0,118,118,118,,,,,,,,,,,,,,,,,,,,,,,,,,,,,,,,,,,603.0393048140104,None,603.0393048140104,None,left,1,2.627316441037692,603.0393048140104,None,1,605.7235908230068,None,,,,,,,,,,,,,,,,,,,,,,,,,,,,,,,,,,,,,,,,,,,,,,,,,,,,,,,,,,,,,,,,,,,21,Female,19,001,2021_Mar_10_1429,cal_abstract,2020.2.4,None,
,Fix1,stimuli/Healthy/33.jpg,right,,,,,,,,,,,0,119,119,119,,,,,,,,,,,,,,,,,,,,,,,,,,,,,,,,,,,606.5368836930138,None,606.5368836930138,None,right,1,2.2739006399642676,606.5368836930138,None,1,608.8695636309567,None,,,,,,,,,,,,,,,,,,,,,,,,,,,,,,,,,,,,,,,,,,,,,,,,,,,,,,,,,,,,,,,,,,,21,Female,19,001,2021_Mar_10_1429,cal_abstract,2020.2.4,None,
,Cond,stimuli/Soft/17.jpg,left,,,,,,,,,,,0,120,120,120,,,,,,,,,,,,,,,,,,,,,,,,,,,,,,,,,,,609.6877478479873,None,609.6877478479873,None,left,1,1.8949855549726635,609.6877478479873,None,1,611.6866611849982,None,,,,,,,,,,,,,,,,,,,,,,,,,,,,,,,,,,,,,,,,,,,,,,,,,,,,,,,,,,,,,,,,,,,21,Female,19,001,2021_Mar_10_1429,cal_abstract,2020.2.4,None,
,Cond,stimuli/Soft/24.jpg,right,,,,,,,,,,,0,121,121,121,,,,,,,,,,,,,,,,,,,,,,,,,,,,,,,,,,,612.5754522719653,None,612.5754522719653,None,right,1,2.792178234027233,612.5754522719653,None,1,615.4068277800106,None,,,,,,,,,,,,,,,,,,,,,,,,,,,,,,,,,,,,,,,,,,,,,,,,,,,,,,,,,,,,,,,,,,,21,Female,19,001,2021_Mar_10_1429,cal_abstract,2020.2.4,None,
,Fix1,stimuli/Healthy/16.jpg,right,,,,,,,,,,,0,122,122,122,,,,,,,,,,,,,,,,,,,,,,,,,,,,,,,,,,,616.2552301879623,None,616.2552301879623,None,right,1,2.607162346947007,616.2552301879623,None,1,618.9369341249694,None,,,,,,,,,,,,,,,,,,,,,,,,,,,,,,,,,,,,,,,,,,,,,,,,,,,,,,,,,,,,,,,,,,,21,Female,19,001,2021_Mar_10_1429,cal_abstract,2020.2.4,None,
,Cond,stimuli/Soft/54.jpg,left,,,,,,,,,,,0,123,123,123,,,,,,,,,,,,,,,,,,,,,,,,,,,,,,,,,,,619.7712748610065,None,619.7712748610065,None,left,1,1.801039490965195,619.7712748610065,None,1,621.6074690250098,None,,,,,,,,,,,,,,,,,,,,,,,,,,,,,,,,,,,,,,,,,,,,,,,,,,,,,,,,,,,,,,,,,,,21,Female,19,001,2021_Mar_10_1429,cal_abstract,2020.2.4,None,
,Cond,stimuli/Soft/44.jpg,right,,,,,,,,,,,0,124,124,124,,,,,,,,,,,,,,,,,,,,,,,,,,,,,,,,,,,622.3875657310127,None,622.3875657310127,None,left,0,1.8571677380241454,622.3875657310127,None,0,624.371124273981,None,,,,,,,,,,,,,,,,,,,,,,,,,,,,,,,,,,,,,,,,,,,,,,,,,,,,,,,,,,,,,,,,,,,21,Female,19,001,2021_Mar_10_1429,cal_abstract,2020.2.4,None,
,Cond,stimuli/Soft/20.JPG,left,,,,,,,,,,,0,125,125,125,,,,,,,,,,,,,,,,,,,,,,,,,,,,,,,,,,,625.1866171089932,None,625.1866171089932,None,left,1,1.5598842650069855,625.1866171089932,None,1,626.827073959983,None,,,,,,,,,,,,,,,,,,,,,,,,,,,,,,,,,,,,,,,,,,,,,,,,,,,,,,,,,,,,,,,,,,,21,Female,19,001,2021_Mar_10_1429,cal_abstract,2020.2.4,None,
,Fix2,stimuli/School/58.jpg,left,,,,,,,,,,,0,126,126,126,,,,,,,,,,,,,,,,,,,,,,,,,,,,,,,,,,,627.5697092879564,None,627.5697092879564,None,left,1,1.3582125960383564,627.5697092879564,None,1,628.9563332980033,None,,,,,,,,,,,,,,,,,,,,,,,,,,,,,,,,,,,,,,,,,,,,,,,,,,,,,,,,,,,,,,,,,,,21,Female,19,001,2021_Mar_10_1429,cal_abstract,2020.2.4,None,
,Fix1,stimuli/Healthy/37.jpg,right,,,,,,,,,,,0,127,127,127,,,,,,,,,,,,,,,,,,,,,,,,,,,,,,,,,,,629.7555751960026,None,629.7555751960026,None,right,1,1.7516125129768625,629.7555751960026,None,1,631.6080560479895,None,,,,,,,,,,,,,,,,,,,,,,,,,,,,,,,,,,,,,,,,,,,,,,,,,,,,,,,,,,,,,,,,,,,21,Female,19,001,2021_Mar_10_1429,cal_abstract,2020.2.4,None,
,Cond,stimuli/Soft/7.jpg,left,,,,,,,,,,,0,128,128,128,,,,,,,,,,,,,,,,,,,,,,,,,,,,,,,,,,,632.4074154839618,None,632.4074154839618,None,left,1,1.380826017993968,632.4074154839618,None,1,633.8479456449859,None,,,,,,,,,,,,,,,,,,,,,,,,,,,,,,,,,,,,,,,,,,,,,,,,,,,,,,,,,,,,,,,,,,,21,Female,19,001,2021_Mar_10_1429,cal_abstract,2020.2.4,None,
,Fix2,stimuli/School/24.jpg,left,,,,,,,,,,,0,129,129,129,,,,,,,,,,,,,,,,,,,,,,,,,,,,,,,,,,,634.620789217006,None,634.620789217006,None,right,0,2.396337187034078,634.620789217006,None,0,637.0407434029621,None,,,,,,,,,,,,,,,,,,,,,,,,,,,,,,,,,,,,,,,,,,,,,,,,,,,,,,,,,,,,,,,,,,,21,Female,19,001,2021_Mar_10_1429,cal_abstract,2020.2.4,None,
,Cond,stimuli/Soft/23.jpg,right,,,,,,,,,,,0,130,130,130,,,,,,,,,,,,,,,,,,,,,,,,,,,,,,,,,,,637.8530938680051,None,637.8530938680051,None,left,0,1.7280416840221733,637.8530938680051,None,0,639.6230856169714,None,,,,,,,,,,,,,,,,,,,,,,,,,,,,,,,,,,,,,,,,,,,,,,,,,,,,,,,,,,,,,,,,,,,21,Female,19,001,2021_Mar_10_1429,cal_abstract,2020.2.4,None,
,Fix1,stimuli/Healthy/46.jpg,right,,,,,,,,,,,0,131,131,131,,,,,,,,,,,,,,,,,,,,,,,,,,,,,,,,,,,640.4190978459665,None,640.4190978459665,None,left,0,1.9538642020197585,640.4190978459665,None,0,642.4356365659623,None,,,,,,,,,,,,,,,,,,,,,,,,,,,,,,,,,,,,,,,,,,,,,,,,,,,,,,,,,,,,,,,,,,,21,Female,19,001,2021_Mar_10_1429,cal_abstract,2020.2.4,None,
,Fix1,stimuli/Healthy/9.jpg,right,,,,,,,,,,,0,132,132,132,,,,,,,,,,,,,,,,,,,,,,,,,,,,,,,,,,,643.2251690549892,None,643.2251690549892,None,right,1,2.715027194004506,643.2251690549892,None,1,646.0199298079824,None,,,,,,,,,,,,,,,,,,,,,,,,,,,,,,,,,,,,,,,,,,,,,,,,,,,,,,,,,,,,,,,,,,,21,Female,19,001,2021_Mar_10_1429,cal_abstract,2020.2.4,None,
,Fix2,stimuli/School/42.jpg,left,,,,,,,,,,,0,133,133,133,,,,,,,,,,,,,,,,,,,,,,,,,,,,,,,,,,,646.8087545899907,None,646.8087545899907,None,left,1,1.5511560919694602,646.8087545899907,None,1,648.3861881389748,None,,,,,,,,,,,,,,,,,,,,,,,,,,,,,,,,,,,,,,,,,,,,,,,,,,,,,,,,,,,,,,,,,,,21,Female,19,001,2021_Mar_10_1429,cal_abstract,2020.2.4,None,
,Fix2,stimuli/School/29.jpg,left,,,,,,,,,,,0,134,134,134,,,,,,,,,,,,,,,,,,,,,,,,,,,,,,,,,,,649.1866779559641,None,649.1866779559641,None,left,1,1.6622029960271902,649.1866779559641,None,1,650.9061257909634,None,,,,,,,,,,,,,,,,,,,,,,,,,,,,,,,,,,,,,,,,,,,,,,,,,,,,,,,,,,,,,,,,,,,21,Female,19,001,2021_Mar_10_1429,cal_abstract,2020.2.4,None,
,Fix1,stimuli/Healthy/58.jpg,right,,,,,,,,,,,0,135,135,135,,,,,,,,,,,,,,,,,,,,,,,,,,,,,,,,,,,651.6523547559627,None,651.6523547559627,None,right,1,2.7012893710052595,651.6523547559627,None,1,654.3929274969851,None,,,,,,,,,,,,,,,,,,,,,,,,,,,,,,,,,,,,,,,,,,,,,,,,,,,,,,,,,,,,,,,,,,,21,Female,19,001,2021_Mar_10_1429,cal_abstract,2020.2.4,None,
,Fix2,stimuli/School/21.jpg,left,,,,,,,,,,,0,136,136,136,,,,,,,,,,,,,,,,,,,,,,,,,,,,,,,,,,,655.2043349620071,None,655.2043349620071,None,left,1,2.1903286609449424,655.2043349620071,None,1,657.436964818975,None,,,,,,,,,,,,,,,,,,,,,,,,,,,,,,,,,,,,,,,,,,,,,,,,,,,,,,,,,,,,,,,,,,,21,Female,19,001,2021_Mar_10_1429,cal_abstract,2020.2.4,None,
,Fix1,stimuli/Healthy/49.jpg,right,,,,,,,,,,,0,137,137,137,,,,,,,,,,,,,,,,,,,,,,,,,,,,,,,,,,,658.2216442530043,None,658.2216442530043,None,right,1,1.8588608240243047,658.2216442530043,None,1,660.1235648489674,None,,,,,,,,,,,,,,,,,,,,,,,,,,,,,,,,,,,,,,,,,,,,,,,,,,,,,,,,,,,,,,,,,,,21,Female,19,001,2021_Mar_10_1429,cal_abstract,2020.2.4,None,
,Fix1,stimuli/Healthy/24.jpg,right,,,,,,,,,,,0,138,138,138,,,,,,,,,,,,,,,,,,,,,,,,,,,,,,,,,,,660.9201209269813,None,660.9201209269813,None,right,1,2.3262696439633146,660.9201209269813,None,1,663.3201992459944,None,,,,,,,,,,,,,,,,,,,,,,,,,,,,,,,,,,,,,,,,,,,,,,,,,,,,,,,,,,,,,,,,,,,21,Female,19,001,2021_Mar_10_1429,cal_abstract,2020.2.4,None,
,Cond,stimuli/Soft/41.jpg,left,,,,,,,,,,,0,139,139,139,,,,,,,,,,,,,,,,,,,,,,,,,,,,,,,,,,,664.1269245709991,None,664.1269245709991,None,left,1,1.8194270739913918,664.1269245709991,None,1,665.9849334059982,None,,,,,,,,,,,,,,,,,,,,,,,,,,,,,,,,,,,,,,,,,,,,,,,,,,,,,,,,,,,,,,,,,,,21,Female,19,001,2021_Mar_10_1429,cal_abstract,2020.2.4,None,
,Fix2,stimuli/School/52.jpg,left,,,,,,,,,,,0,140,140,140,,,,,,,,,,,,,,,,,,,,,,,,,,,,,,,,,,,666.8043197129737,None,666.8043197129737,None,right,0,4.440203737991396,666.8043197129737,None,0,671.2733419919969,None,,,,,,,,,,,,,,,,,,,,,,,,,,,,,,,,,,,,,,,,,,,,,,,,,,,,,,,,,,,,,,,,,,,21,Female,19,001,2021_Mar_10_1429,cal_abstract,2020.2.4,None,
,Fix2,stimuli/School/44.jpg,left,,,,,,,,,,,0,141,141,141,,,,,,,,,,,,,,,,,,,,,,,,,,,,,,,,,,,672.0532374170143,None,672.0532374170143,None,right,0,2.0339876930229366,672.0532374170143,None,0,674.1413477860042,None,,,,,,,,,,,,,,,,,,,,,,,,,,,,,,,,,,,,,,,,,,,,,,,,,,,,,,,,,,,,,,,,,,,21,Female,19,001,2021_Mar_10_1429,cal_abstract,2020.2.4,None,
,Fix1,stimuli/Healthy/50.jpg,right,,,,,,,,,,,0,142,142,142,,,,,,,,,,,,,,,,,,,,,,,,,,,,,,,,,,,674.919896323001,None,674.919896323001,None,right,1,1.6664697990054265,674.919896323001,None,1,676.6695124430116,None,,,,,,,,,,,,,,,,,,,,,,,,,,,,,,,,,,,,,,,,,,,,,,,,,,,,,,,,,,,,,,,,,,,21,Female,19,001,2021_Mar_10_1429,cal_abstract,2020.2.4,None,
,Cond,stimuli/Soft/43.jpg,left,,,,,,,,,,,0,143,143,143,,,,,,,,,,,,,,,,,,,,,,,,,,,,,,,,,,,677.4526776249986,None,677.4526776249986,None,left,1,1.563363657973241,677.4526776249986,None,1,679.0522183660069,None,,,,,,,,,,,,,,,,,,,,,,,,,,,,,,,,,,,,,,,,,,,,,,,,,,,,,,,,,,,,,,,,,,,21,Female,19,001,2021_Mar_10_1429,cal_abstract,2020.2.4,None,
,Fix2,stimuli/School/25.jpg,left,,,,,,,,,,,0,144,144,144,,,,,,,,,,,,,,,,,,,,,,,,,,,,,,,,,,,679.9034853730118,None,679.9034853730118,None,right,0,3.7721909019746818,679.9034853730118,None,0,683.7356295709615,None,,,,,,,,,,,,,,,,,,,,,,,,,,,,,,,,,,,,,,,,,,,,,,,,,,,,,,,,,,,,,,,,,,,21,Female,19,001,2021_Mar_10_1429,cal_abstract,2020.2.4,None,
,Fix2,stimuli/School/14.jpg,left,,,,,,,,,,,0,145,145,145,,,,,,,,,,,,,,,,,,,,,,,,,,,,,,,,,,,684.5551540359738,None,684.5551540359738,None,left,1,1.7998213919927366,684.5551540359738,None,1,686.4177757810103,None,,,,,,,,,,,,,,,,,,,,,,,,,,,,,,,,,,,,,,,,,,,,,,,,,,,,,,,,,,,,,,,,,,,21,Female,19,001,2021_Mar_10_1429,cal_abstract,2020.2.4,None,
,Fix2,stimuli/School/17.jpg,left,,,,,,,,,,,0,146,146,146,,,,,,,,,,,,,,,,,,,,,,,,,,,,,,,,,,,687.1850792960031,None,687.1850792960031,None,left,1,1.785952044010628,687.1850792960031,None,1,689.0347980780061,None,,,,,,,,,,,,,,,,,,,,,,,,,,,,,,,,,,,,,,,,,,,,,,,,,,,,,,,,,,,,,,,,,,,21,Female,19,001,2021_Mar_10_1429,cal_abstract,2020.2.4,None,
,Fix2,stimuli/School/6.jpg,left,,,,,,,,,,,0,147,147,147,,,,,,,,,,,,,,,,,,,,,,,,,,,,,,,,,,,689.8187560769729,None,689.8187560769729,None,left,1,1.8151972440537065,689.8187560769729,None,1,691.6690437640063,None,,,,,,,,,,,,,,,,,,,,,,,,,,,,,,,,,,,,,,,,,,,,,,,,,,,,,,,,,,,,,,,,,,,21,Female,19,001,2021_Mar_10_1429,cal_abstract,2020.2.4,None,
,Cond,stimuli/Soft/34.jpg,right,,,,,,,,,,,0,148,148,148,,,,,,,,,,,,,,,,,,,,,,,,,,,,,,,,,,,692.4566055209725,None,692.4566055209725,None,left,0,2.221293971000705,692.4566055209725,None,0,694.7027998279664,None,,,,,,,,,,,,,,,,,,,,,,,,,,,,,,,,,,,,,,,,,,,,,,,,,,,,,,,,,,,,,,,,,,,21,Female,19,001,2021_Mar_10_1429,cal_abstract,2020.2.4,None,
,Cond,stimuli/Soft/57.jpg,left,,,,,,,,,,,0,149,149,149,,,,,,,,,,,,,,,,,,,,,,,,,,,,,,,,,,,695.4724718930083,None,695.4724718930083,None,left,1,1.6954329650034197,695.4724718930083,None,1,697.2366488499683,None,,,,,,,,,,,,,,,,,,,,,,,,,,,,,,,,,,,,,,,,,,,,,,,,,,,,,,,,,,,,,,,,,,,21,Female,19,001,2021_Mar_10_1429,cal_abstract,2020.2.4,None,
,Fix1,stimuli/Healthy/44.jpg,right,,,,,,,,,,,0,150,150,150,,,,,,,,,,,,,,,,,,,,,,,,,,,,,,,,,,,698.0027428329922,None,698.0027428329922,None,right,1,1.7933394570136443,698.0027428329922,None,1,699.8701750210021,None,,,,,,,,,,,,,,,,,,,,,,,,,,,,,,,,,,,,,,,,,,,,,,,,,,,,,,,,,,,,,,,,,,,21,Female,19,001,2021_Mar_10_1429,cal_abstract,2020.2.4,None,
,Fix2,stimuli/School/33.jpg,left,,,,,,,,,,,0,151,151,151,,,,,,,,,,,,,,,,,,,,,,,,,,,,,,,,,,,700.6397224789835,None,700.6397224789835,None,left,1,1.720945245004259,700.6397224789835,None,1,702.3861556499614,None,,,,,,,,,,,,,,,,,,,,,,,,,,,,,,,,,,,,,,,,,,,,,,,,,,,,,,,,,,,,,,,,,,,21,Female,19,001,2021_Mar_10_1429,cal_abstract,2020.2.4,None,
,Fix2,stimuli/School/23.jpg,left,,,,,,,,,,,0,152,152,152,,,,,,,,,,,,,,,,,,,,,,,,,,,,,,,,,,,703.1866931029945,None,703.1866931029945,None,left,1,1.703956090961583,703.1866931029945,None,1,704.9410332689877,None,,,,,,,,,,,,,,,,,,,,,,,,,,,,,,,,,,,,,,,,,,,,,,,,,,,,,,,,,,,,,,,,,,,21,Female,19,001,2021_Mar_10_1429,cal_abstract,2020.2.4,None,
,Fix1,stimuli/Healthy/3.jpg,right,,,,,,,,,,,0,153,153,153,,,,,,,,,,,,,,,,,,,,,,,,,,,,,,,,,,,705.772380903014,None,705.772380903014,None,right,1,1.4474773209658451,705.772380903014,None,1,707.3045210759738,None,,,,,,,,,,,,,,,,,,,,,,,,,,,,,,,,,,,,,,,,,,,,,,,,,,,,,,,,,,,,,,,,,,,21,Female,19,001,2021_Mar_10_1429,cal_abstract,2020.2.4,None,
,Fix2,stimuli/School/39.jpg,left,,,,,,,,,,,0,154,154,154,,,,,,,,,,,,,,,,,,,,,,,,,,,,,,,,,,,708.0850566019653,None,708.0850566019653,None,left,1,1.5953489069943316,708.0850566019653,None,1,709.7203678949736,None,,,,,,,,,,,,,,,,,,,,,,,,,,,,,,,,,,,,,,,,,,,,,,,,,,,,,,,,,,,,,,,,,,,21,Female,19,001,2021_Mar_10_1429,cal_abstract,2020.2.4,None,
,Fix2,stimuli/School/11.jpg,left,,,,,,,,,,,0,155,155,155,,,,,,,,,,,,,,,,,,,,,,,,,,,,,,,,,,,710.5635801219614,None,710.5635801219614,None,left,1,1.3652690770104527,710.5635801219614,None,1,711.9723593969829,None,,,,,,,,,,,,,,,,,,,,,,,,,,,,,,,,,,,,,,,,,,,,,,,,,,,,,,,,,,,,,,,,,,,21,Female,19,001,2021_Mar_10_1429,cal_abstract,2020.2.4,None,
,Fix2,stimuli/School/4.jpg,left,,,,,,,,,,,0,156,156,156,,,,,,,,,,,,,,,,,,,,,,,,,,,,,,,,,,,712.7872302999604,None,712.7872302999604,None,left,1,1.5677424590103328,712.7872302999604,None,1,714.4194117389852,None,,,,,,,,,,,,,,,,,,,,,,,,,,,,,,,,,,,,,,,,,,,,,,,,,,,,,,,,,,,,,,,,,,,21,Female,19,001,2021_Mar_10_1429,cal_abstract,2020.2.4,None,
,Cond,stimuli/Soft/16.jpg,right,,,,,,,,,,,0,157,157,157,,,,,,,,,,,,,,,,,,,,,,,,,,,,,,,,,,,715.1864060729858,None,715.1864060729858,None,left,0,1.9769084369763732,715.1864060729858,None,0,717.1894564279937,None,,,,,,,,,,,,,,,,,,,,,,,,,,,,,,,,,,,,,,,,,,,,,,,,,,,,,,,,,,,,,,,,,,,21,Female,19,001,2021_Mar_10_1429,cal_abstract,2020.2.4,None,
,Fix1,stimuli/Healthy/11.jpg,right,,,,,,,,,,,0,158,158,158,,,,,,,,,,,,,,,,,,,,,,,,,,,,,,,,,,,718.015023607004,None,718.015023607004,None,right,1,1.6682936679571867,718.015023607004,None,1,719.76850542397,None,,,,,,,,,,,,,,,,,,,,,,,,,,,,,,,,,,,,,,,,,,,,,,,,,,,,,,,,,,,,,,,,,,,21,Female,19,001,2021_Mar_10_1429,cal_abstract,2020.2.4,None,
,Fix1,stimuli/Healthy/32.jpg,right,,,,,,,,,,,0,159,159,159,,,,,,,,,,,,,,,,,,,,,,,,,,,,,,,,,,,720.5540677150129,None,720.5540677150129,None,right,1,1.7377439929987304,720.5540677150129,None,1,722.3873159399955,None,,,,,,,,,,,,,,,,,,,,,,,,,,,,,,,,,,,,,,,,,,,,,,,,,,,,,,,,,,,,,,,,,,,21,Female,19,001,2021_Mar_10_1429,cal_abstract,2020.2.4,None,
,Fix1,stimuli/Healthy/54.jpg,right,,,,,,,,,,,0,160,160,160,,,,,,,,,,,,,,,,,,,,,,,,,,,,,,,,,,,723.1378333480097,None,723.1378333480097,None,right,1,1.8121293219737709,723.1378333480097,None,1,725.0029119880055,None,,,,,,,,,,,,,,,,,,,,,,,,,,,,,,,,,,,,,,,,,,,,,,,,,,,,,,,,,,,,,,,,,,,21,Female,19,001,2021_Mar_10_1429,cal_abstract,2020.2.4,None,
,Fix2,stimuli/School/16.jpg,left,,,,,,,,,,,0,161,161,161,,,,,,,,,,,,,,,,,,,,,,,,,,,,,,,,,,,725.8193081750069,None,725.8193081750069,None,left,1,1.6737670750007965,725.8193081750069,None,1,727.5393991129822,None,,,,,,,,,,,,,,,,,,,,,,,,,,,,,,,,,,,,,,,,,,,,,,,,,,,,,,,,,,,,,,,,,,,21,Female,19,001,2021_Mar_10_1429,cal_abstract,2020.2.4,None,
,Fix2,stimuli/School/47.jpg,left,,,,,,,,,,,0,162,162,162,,,,,,,,,,,,,,,,,,,,,,,,,,,,,,,,,,,728.3364288109588,None,728.3364288109588,None,left,1,1.49900821398478,728.3364288109588,None,1,729.8723130740109,None,,,,,,,,,,,,,,,,,,,,,,,,,,,,,,,,,,,,,,,,,,,,,,,,,,,,,,,,,,,,,,,,,,,21,Female,19,001,2021_Mar_10_1429,cal_abstract,2020.2.4,None,
,Fix1,stimuli/Healthy/21.jpg,right,,,,,,,,,,,0,163,163,163,,,,,,,,,,,,,,,,,,,,,,,,,,,,,,,,,,,730.7292903320049,None,730.7292903320049,None,right,1,1.5264175399788655,730.7292903320049,None,1,732.3017569999793,None,,,,,,,,,,,,,,,,,,,,,,,,,,,,,,,,,,,,,,,,,,,,,,,,,,,,,,,,,,,,,,,,,,,21,Female,19,001,2021_Mar_10_1429,cal_abstract,2020.2.4,None,
,Fix2,stimuli/School/12.jpg,left,,,,,,,,,,,0,164,164,164,,,,,,,,,,,,,,,,,,,,,,,,,,,,,,,,,,,733.0920085939579,None,733.0920085939579,None,left,1,2.0406097000231966,733.0920085939579,None,1,735.2190147789661,None,,,,,,,,,,,,,,,,,,,,,,,,,,,,,,,,,,,,,,,,,,,,,,,,,,,,,,,,,,,,,,,,,,,21,Female,19,001,2021_Mar_10_1429,cal_abstract,2020.2.4,None,
,Cond,stimuli/Soft/6.jpg,right,,,,,,,,,,,0,165,165,165,,,,,,,,,,,,,,,,,,,,,,,,,,,,,,,,,,,736.0113487509661,None,736.0113487509661,None,left,0,1.7381193399778567,736.0113487509661,None,0,737.8189957059803,None,,,,,,,,,,,,,,,,,,,,,,,,,,,,,,,,,,,,,,,,,,,,,,,,,,,,,,,,,,,,,,,,,,,21,Female,19,001,2021_Mar_10_1429,cal_abstract,2020.2.4,None,
,Fix2,stimuli/School/45.jpg,left,,,,,,,,,,,0,166,166,166,,,,,,,,,,,,,,,,,,,,,,,,,,,,,,,,,,,738.5907705450081,None,738.5907705450081,None,left,1,2.2768161820131354,738.5907705450081,None,1,740.9700713129714,None,,,,,,,,,,,,,,,,,,,,,,,,,,,,,,,,,,,,,,,,,,,,,,,,,,,,,,,,,,,,,,,,,,,21,Female,19,001,2021_Mar_10_1429,cal_abstract,2020.2.4,None,
,Fix2,stimuli/School/54.jpg,left,,,,,,,,,,,0,167,167,167,,,,,,,,,,,,,,,,,,,,,,,,,,,,,,,,,,,741.8032626819913,None,741.8032626819913,None,left,1,1.904042167996522,741.8032626819913,None,1,743.7847288879566,None,,,,,,,,,,,,,,,,,,,,,,,,,,,,,,,,,,,,,,,,,,,,,,,,,,,,,,,,,,,,,,,,,,,21,Female,19,001,2021_Mar_10_1429,cal_abstract,2020.2.4,None,
,Cond,stimuli/Soft/22.jpg,right,,,,,,,,,,,0,168,168,168,,,,,,,,,,,,,,,,,,,,,,,,,,,,,,,,,,,744.585873849981,None,744.585873849981,None,left,0,4.45717886503553,744.585873849981,None,0,749.1231757529895,None,,,,,,,,,,,,,,,,,,,,,,,,,,,,,,,,,,,,,,,,,,,,,,,,,,,,,,,,,,,,,,,,,,,21,Female,19,001,2021_Mar_10_1429,cal_abstract,2020.2.4,None,
,Fix2,stimuli/School/3.jpg,left,,,,,,,,,,,0,169,169,169,,,,,,,,,,,,,,,,,,,,,,,,,,,,,,,,,,,749.9513316079974,None,749.9513316079974,None,left,1,1.9749257490038872,749.9513316079974,None,1,751.9971362669603,None,,,,,,,,,,,,,,,,,,,,,,,,,,,,,,,,,,,,,,,,,,,,,,,,,,,,,,,,,,,,,,,,,,,21,Female,19,001,2021_Mar_10_1429,cal_abstract,2020.2.4,None,
,Fix2,stimuli/School/27.jpg,left,,,,,,,,,,,0,170,170,170,,,,,,,,,,,,,,,,,,,,,,,,,,,,,,,,,,,752.7518944129697,None,752.7518944129697,None,left,1,2.407297064026352,752.7518944129697,None,1,755.2347931209952,None,,,,,,,,,,,,,,,,,,,,,,,,,,,,,,,,,,,,,,,,,,,,,,,,,,,,,,,,,,,,,,,,,,,21,Female,19,001,2021_Mar_10_1429,cal_abstract,2020.2.4,None,
,Fix1,stimuli/Healthy/65.jpg,right,,,,,,,,,,,0,171,171,171,,,,,,,,,,,,,,,,,,,,,,,,,,,,,,,,,,,756.0355493089883,None,756.0355493089883,None,left,0,2.286513695027679,756.0355493089883,None,0,758.3895392169943,None,,,,,,,,,,,,,,,,,,,,,,,,,,,,,,,,,,,,,,,,,,,,,,,,,,,,,,,,,,,,,,,,,,,21,Female,19,001,2021_Mar_10_1429,cal_abstract,2020.2.4,None,
,Fix2,stimuli/School/43.jpg,left,,,,,,,,,,,0,172,172,172,,,,,,,,,,,,,,,,,,,,,,,,,,,,,,,,,,,759.2185194439953,None,759.2185194439953,None,left,1,1.41833991400199,759.2185194439953,None,1,760.7185475960141,None,,,,,,,,,,,,,,,,,,,,,,,,,,,,,,,,,,,,,,,,,,,,,,,,,,,,,,,,,,,,,,,,,,,21,Female,19,001,2021_Mar_10_1429,cal_abstract,2020.2.4,None,
,Fix1,stimuli/Healthy/66.jpg,right,,,,,,,,,,,0,173,173,173,,,,,,,,,,,,,,,,,,,,,,,,,,,,,,,,,,,761.4836267419741,None,761.4836267419741,None,right,1,2.139380052976776,761.4836267419741,None,1,763.6936448760098,None,,,,,,,,,,,,,,,,,,,,,,,,,,,,,,,,,,,,,,,,,,,,,,,,,,,,,,,,,,,,,,,,,,,21,Female,19,001,2021_Mar_10_1429,cal_abstract,2020.2.4,None,
,Fix2,stimuli/School/59.jpg,left,,,,,,,,,,,0,174,174,174,,,,,,,,,,,,,,,,,,,,,,,,,,,,,,,,,,,764.4697498529567,None,764.4697498529567,None,left,1,1.7041843730257824,764.4697498529567,None,1,766.2041951509891,None,,,,,,,,,,,,,,,,,,,,,,,,,,,,,,,,,,,,,,,,,,,,,,,,,,,,,,,,,,,,,,,,,,,21,Female,19,001,2021_Mar_10_1429,cal_abstract,2020.2.4,None,
,Fix1,stimuli/Healthy/19.jpg,right,,,,,,,,,,,0,175,175,175,,,,,,,,,,,,,,,,,,,,,,,,,,,,,,,,,,,767.0055375559605,None,767.0055375559605,None,right,1,1.7291444359580055,767.0055375559605,None,1,768.7834354809602,None,,,,,,,,,,,,,,,,,,,,,,,,,,,,,,,,,,,,,,,,,,,,,,,,,,,,,,,,,,,,,,,,,,,21,Female,19,001,2021_Mar_10_1429,cal_abstract,2020.2.4,None,
,Cond,stimuli/Soft/3.jpg,left,,,,,,,,,,,0,176,176,176,,,,,,,,,,,,,,,,,,,,,,,,,,,,,,,,,,,769.5699452779954,None,769.5699452779954,None,left,1,1.5346392749925144,769.5699452779954,None,1,771.1349161349935,None,,,,,,,,,,,,,,,,,,,,,,,,,,,,,,,,,,,,,,,,,,,,,,,,,,,,,,,,,,,,,,,,,,,21,Female,19,001,2021_Mar_10_1429,cal_abstract,2020.2.4,None,
,Fix2,stimuli/School/18.jpg,left,,,,,,,,,,,0,177,177,177,,,,,,,,,,,,,,,,,,,,,,,,,,,,,,,,,,,771.9518175029662,None,771.9518175029662,None,left,1,2.5475869920337573,771.9518175029662,None,1,774.5182133399649,None,,,,,,,,,,,,,,,,,,,,,,,,,,,,,,,,,,,,,,,,,,,,,,,,,,,,,,,,,,,,,,,,,,,21,Female,19,001,2021_Mar_10_1429,cal_abstract,2020.2.4,None,
,Fix1,stimuli/Healthy/27.jpg,right,,,,,,,,,,,0,178,178,178,,,,,,,,,,,,,,,,,,,,,,,,,,,,,,,,,,,775.3605951659847,None,775.3605951659847,None,right,1,7.333355832961388,775.3605951659847,None,1,782.7195511799655,None,,,,,,,,,,,,,,,,,,,,,,,,,,,,,,,,,,,,,,,,,,,,,,,,,,,,,,,,,,,,,,,,,,,21,Female,19,001,2021_Mar_10_1429,cal_abstract,2020.2.4,None,
,Fix2,stimuli/School/48.jpg,left,,,,,,,,,,,0,179,179,179,,,,,,,,,,,,,,,,,,,,,,,,,,,,,,,,,,,783.5346302029793,None,783.5346302029793,None,left,1,4.355286437028553,783.5346302029793,None,1,787.9177243259619,None,,,,,,,,,,,,,,,,,,,,,,,,,,,,,,,,,,,,,,,,,,,,,,,,,,,,,,,,,,,,,,,,,,,21,Female,19,001,2021_Mar_10_1429,cal_abstract,2020.2.4,None,
,,,,,,,,,,,,,,,,,,,,,,,,,,,,,,,,,,,,,,,,,,,,,,,,,,,,,,,,,,,,,,,,788.7176908729598,None,c,22.748054600029718,788.7176908729598,None,,,,,,,,,,,,,,,,,,,,,,,,,,,,,,,,,,,,,,,,,,,,,,,,,,,,,,,,,,,,,21,Female,19,001,2021_Mar_10_1429,cal_abstract,2020.2.4,None,
,,,,,,,,,,,,,,,,,,,,,,,,,,,,,,,,,,,,,,,,,,,,,,,,,,,,,,,,,,,,,,,,,,,,,,811.4861687549856,None,811.4861687549856,None,return,12.03420031798305,811.4861687549856,None,,,,,,,,,,,,,,,,,,,,,,,,,,,,,,,,,,,,,,,,,,,,,,,,,,,,,21,Female,19,001,2021_Mar_10_1429,cal_abstract,2020.2.4,None,
,,,,,,,,,,,,,,,,,,,,,,,,,,,,,,,,,,,,,,,,,,,,,,,,,,,,,,,,,,,,,,,,,,,,,,,,,,,,,,823.6021788619692,None,823.6021788619692,None,s,1.3671524270321243,823.6021788619692,None,,,,,,,,,,,,,,,,,,,,,,,,,,,,,,,,,,,,,,,,,,,,,21,Female,19,001,2021_Mar_10_1429,cal_abstract,2020.2.4,None,
,,,,Fix1,stimuli/Smell/18.jpg,right,,,,,,,,,,,,0,0,0,0,,,,,,,,,,,,,,,,,,,,,,,,,,,,,,,,,,,,,,,,1,,,,,,,,,,,,,,,,,,,,,,,,,825.1230382510112,None,825.1230382510112,None,right,1,37.39023192698369,825.1230382510112,None,862.5501738219755,None,,,,,,,,,,,,,,,,,,,,,,,,,,,,,,,,,,21,Female,19,001,2021_Mar_10_1429,cal_abstract,2020.2.4,None,
,,,,Cond,stimuli/Wealth/12.jpg,left,,,,,,,,,,,,0,1,1,1,,,,,,,,,,,,,,,,,,,,,,,,,,,,,,,,,,,,,,,,1,,,,,,,,,,,,,,,,,,,,,,,,,863.4007451820071,None,863.4007451820071,None,left,1,1.8913677500095218,863.4007451820071,None,865.3169102949905,None,,,,,,,,,,,,,,,,,,,,,,,,,,,,,,,,,,21,Female,19,001,2021_Mar_10_1429,cal_abstract,2020.2.4,None,
,,,,Cond,stimuli/Wealth/28.jpg,right,,,,,,,,,,,,0,2,2,2,,,,,,,,,,,,,,,,,,,,,,,,,,,,,,,,,,,,,,,,0,,,,,,,,,,,,,,,,,,,,,,,,,866.1190552889602,None,866.1190552889602,None,left,0,1.7290275450213812,866.1190552889602,None,867.8719497949933,None,,,,,,,,,,,,,,,,,,,,,,,,,,,,,,,,,,21,Female,19,001,2021_Mar_10_1429,cal_abstract,2020.2.4,None,
,,,,Fix1,stimuli/Smell/55.jpg,right,,,,,,,,,,,,0,3,3,3,,,,,,,,,,,,,,,,,,,,,,,,,,,,,,,,,,,,,,,,1,,,,,,,,,,,,,,,,,,,,,,,,,868.6830333739636,None,868.6830333739636,None,right,1,2.485963783983607,868.6830333739636,None,871.2035821179743,None,,,,,,,,,,,,,,,,,,,,,,,,,,,,,,,,,,21,Female,19,001,2021_Mar_10_1429,cal_abstract,2020.2.4,None,
,,,,Fix1,stimuli/Smell/54.jpg,right,,,,,,,,,,,,0,4,4,4,,,,,,,,,,,,,,,,,,,,,,,,,,,,,,,,,,,,,,,,0,,,,,,,,,,,,,,,,,,,,,,,,,871.9820748349885,None,871.9820748349885,None,left,0,2.8691132099484093,871.9820748349885,None,874.9162773279822,None,,,,,,,,,,,,,,,,,,,,,,,,,,,,,,,,,,21,Female,19,001,2021_Mar_10_1429,cal_abstract,2020.2.4,None,
,,,,Fix1,stimuli/Smell/31.jpg,right,,,,,,,,,,,,0,5,5,5,,,,,,,,,,,,,,,,,,,,,,,,,,,,,,,,,,,,,,,,1,,,,,,,,,,,,,,,,,,,,,,,,,875.705749508983,None,875.705749508983,None,right,1,1.837257740960922,875.705749508983,None,877.5702858800068,None,,,,,,,,,,,,,,,,,,,,,,,,,,,,,,,,,,21,Female,19,001,2021_Mar_10_1429,cal_abstract,2020.2.4,None,
,,,,Cond,stimuli/Wealth/26.jpg,left,,,,,,,,,,,,0,6,6,6,,,,,,,,,,,,,,,,,,,,,,,,,,,,,,,,,,,,,,,,1,,,,,,,,,,,,,,,,,,,,,,,,,878.3885749279871,None,878.3885749279871,None,left,1,1.5522780769970268,878.3885749279871,None,880.000387542008,None,,,,,,,,,,,,,,,,,,,,,,,,,,,,,,,,,,21,Female,19,001,2021_Mar_10_1429,cal_abstract,2020.2.4,None,
,,,,Fix1,stimuli/Smell/45.jpg,right,,,,,,,,,,,,0,7,7,7,,,,,,,,,,,,,,,,,,,,,,,,,,,,,,,,,,,,,,,,1,,,,,,,,,,,,,,,,,,,,,,,,,880.8737131879898,None,880.8737131879898,None,right,1,1.7960661810357124,880.8737131879898,None,882.7042711519753,None,,,,,,,,,,,,,,,,,,,,,,,,,,,,,,,,,,21,Female,19,001,2021_Mar_10_1429,cal_abstract,2020.2.4,None,
,,,,Cond,stimuli/Wealth/19.jpg,left,,,,,,,,,,,,0,8,8,8,,,,,,,,,,,,,,,,,,,,,,,,,,,,,,,,,,,,,,,,0,,,,,,,,,,,,,,,,,,,,,,,,,883.5339574919781,None,883.5339574919781,None,right,0,3.9171100109815598,883.5339574919781,None,887.5033019139664,None,,,,,,,,,,,,,,,,,,,,,,,,,,,,,,,,,,21,Female,19,001,2021_Mar_10_1429,cal_abstract,2020.2.4,None,
,,,,Fix1,stimuli/Smell/27.jpg,right,,,,,,,,,,,,0,9,9,9,,,,,,,,,,,,,,,,,,,,,,,,,,,,,,,,,,,,,,,,1,,,,,,,,,,,,,,,,,,,,,,,,,888.3656621949631,None,888.3656621949631,None,right,1,1.8123640969861299,888.3656621949631,None,890.1997379139648,None,,,,,,,,,,,,,,,,,,,,,,,,,,,,,,,,,,21,Female,19,001,2021_Mar_10_1429,cal_abstract,2020.2.4,None,
,,,,Cond,stimuli/Wealth/43.jpg,left,,,,,,,,,,,,0,10,10,10,,,,,,,,,,,,,,,,,,,,,,,,,,,,,,,,,,,,,,,,1,,,,,,,,,,,,,,,,,,,,,,,,,891.0004183709971,None,891.0004183709971,None,left,1,1.4554254499962553,891.0004183709971,None,892.519740942982,None,,,,,,,,,,,,,,,,,,,,,,,,,,,,,,,,,,21,Female,19,001,2021_Mar_10_1429,cal_abstract,2020.2.4,None,
,,,,Cond,stimuli/Wealth/41.jpg,right,,,,,,,,,,,,0,11,11,11,,,,,,,,,,,,,,,,,,,,,,,,,,,,,,,,,,,,,,,,0,,,,,,,,,,,,,,,,,,,,,,,,,893.3343632309698,None,893.3343632309698,None,left,0,1.4655367839732207,893.3343632309698,None,894.850813529978,None,,,,,,,,,,,,,,,,,,,,,,,,,,,,,,,,,,21,Female,19,001,2021_Mar_10_1429,cal_abstract,2020.2.4,None,
,,,,Fix1,stimuli/Smell/46.jpg,right,,,,,,,,,,,,0,12,12,12,,,,,,,,,,,,,,,,,,,,,,,,,,,,,,,,,,,,,,,,1,,,,,,,,,,,,,,,,,,,,,,,,,895.650516454014,None,895.650516454014,None,right,1,1.691220232984051,895.650516454014,None,897.4163664829684,None,,,,,,,,,,,,,,,,,,,,,,,,,,,,,,,,,,21,Female,19,001,2021_Mar_10_1429,cal_abstract,2020.2.4,None,
,,,,Fix2,stimuli/Dangerous/33.jpg,left,,,,,,,,,,,,0,13,13,13,,,,,,,,,,,,,,,,,,,,,,,,,,,,,,,,,,,,,,,,1,,,,,,,,,,,,,,,,,,,,,,,,,898.1828635369893,None,898.1828635369893,None,left,1,2.0619396360125393,898.1828635369893,None,900.2658320050105,None,,,,,,,,,,,,,,,,,,,,,,,,,,,,,,,,,,21,Female,19,001,2021_Mar_10_1429,cal_abstract,2020.2.4,None,
,,,,Fix1,stimuli/Smell/49.jpg,right,,,,,,,,,,,,0,14,14,14,,,,,,,,,,,,,,,,,,,,,,,,,,,,,,,,,,,,,,,,1,,,,,,,,,,,,,,,,,,,,,,,,,901.0683686379925,None,901.0683686379925,None,right,1,1.9482451899675652,901.0683686379925,None,903.0519817129825,None,,,,,,,,,,,,,,,,,,,,,,,,,,,,,,,,,,21,Female,19,001,2021_Mar_10_1429,cal_abstract,2020.2.4,None,
,,,,Fix1,stimuli/Smell/29.jpg,right,,,,,,,,,,,,0,15,15,15,,,,,,,,,,,,,,,,,,,,,,,,,,,,,,,,,,,,,,,,0,,,,,,,,,,,,,,,,,,,,,,,,,903.8889912670129,None,903.8889912670129,None,left,0,3.552147520997096,903.8889912670129,None,907.4664430749835,None,,,,,,,,,,,,,,,,,,,,,,,,,,,,,,,,,,21,Female,19,001,2021_Mar_10_1429,cal_abstract,2020.2.4,None,
,,,,Fix1,stimuli/Smell/42.jpg,right,,,,,,,,,,,,0,16,16,16,,,,,,,,,,,,,,,,,,,,,,,,,,,,,,,,,,,,,,,,1,,,,,,,,,,,,,,,,,,,,,,,,,908.2868088189862,None,908.2868088189862,None,right,1,1.5721651880303398,908.2868088189862,None,909.9324945249828,None,,,,,,,,,,,,,,,,,,,,,,,,,,,,,,,,,,21,Female,19,001,2021_Mar_10_1429,cal_abstract,2020.2.4,None,
,,,,Fix2,stimuli/Dangerous/22.jpg,left,,,,,,,,,,,,0,17,17,17,,,,,,,,,,,,,,,,,,,,,,,,,,,,,,,,,,,,,,,,0,,,,,,,,,,,,,,,,,,,,,,,,,910.6991052170051,None,910.6991052170051,None,right,0,2.427773570001591,910.6991052170051,None,913.1826748260064,None,,,,,,,,,,,,,,,,,,,,,,,,,,,,,,,,,,21,Female,19,001,2021_Mar_10_1429,cal_abstract,2020.2.4,None,
,,,,Fix2,stimuli/Dangerous/45.jpg,left,,,,,,,,,,,,0,18,18,18,,,,,,,,,,,,,,,,,,,,,,,,,,,,,,,,,,,,,,,,0,,,,,,,,,,,,,,,,,,,,,,,,,914.0043359110132,None,914.0043359110132,None,right,0,2.2095962399616838,914.0043359110132,None,916.2365274979966,None,,,,,,,,,,,,,,,,,,,,,,,,,,,,,,,,,,21,Female,19,001,2021_Mar_10_1429,cal_abstract,2020.2.4,None,
,,,,Cond,stimuli/Wealth/34.jpg,right,,,,,,,,,,,,0,19,19,19,,,,,,,,,,,,,,,,,,,,,,,,,,,,,,,,,,,,,,,,0,,,,,,,,,,,,,,,,,,,,,,,,,917.0513603669824,None,917.0513603669824,None,left,0,4.845003956987057,917.0513603669824,None,921.9164078579633,None,,,,,,,,,,,,,,,,,,,,,,,,,,,,,,,,,,21,Female,19,001,2021_Mar_10_1429,cal_abstract,2020.2.4,None,
,,,,Fix1,stimuli/Smell/5.jpg,right,,,,,,,,,,,,0,20,20,20,,,,,,,,,,,,,,,,,,,,,,,,,,,,,,,,,,,,,,,,1,,,,,,,,,,,,,,,,,,,,,,,,,922.7005164469592,None,922.7005164469592,None,right,1,5.268448209972121,922.7005164469592,None,928.0497434840072,None,,,,,,,,,,,,,,,,,,,,,,,,,,,,,,,,,,21,Female,19,001,2021_Mar_10_1429,cal_abstract,2020.2.4,None,
,,,,Fix2,stimuli/Dangerous/31.jpg,left,,,,,,,,,,,,0,21,21,21,,,,,,,,,,,,,,,,,,,,,,,,,,,,,,,,,,,,,,,,1,,,,,,,,,,,,,,,,,,,,,,,,,928.8294309689663,None,928.8294309689663,None,left,1,2.580751209985465,928.8294309689663,None,931.4322625439963,None,,,,,,,,,,,,,,,,,,,,,,,,,,,,,,,,,,21,Female,19,001,2021_Mar_10_1429,cal_abstract,2020.2.4,None,
,,,,Fix1,stimuli/Smell/10.jpg,right,,,,,,,,,,,,0,22,22,22,,,,,,,,,,,,,,,,,,,,,,,,,,,,,,,,,,,,,,,,1,,,,,,,,,,,,,,,,,,,,,,,,,932.2158405479859,None,932.2158405479859,None,right,1,1.8878996669664048,932.2158405479859,None,934.1664365109755,None,,,,,,,,,,,,,,,,,,,,,,,,,,,,,,,,,,21,Female,19,001,2021_Mar_10_1429,cal_abstract,2020.2.4,None,
,,,,Fix2,stimuli/Dangerous/42.jpg,left,,,,,,,,,,,,0,23,23,23,,,,,,,,,,,,,,,,,,,,,,,,,,,,,,,,,,,,,,,,1,,,,,,,,,,,,,,,,,,,,,,,,,934.9673452809802,None,934.9673452809802,None,left,1,2.0351783339865506,934.9673452809802,None,937.0998819919769,None,,,,,,,,,,,,,,,,,,,,,,,,,,,,,,,,,,21,Female,19,001,2021_Mar_10_1429,cal_abstract,2020.2.4,None,
,,,,Fix1,stimuli/Smell/30.jpg,right,,,,,,,,,,,,0,24,24,24,,,,,,,,,,,,,,,,,,,,,,,,,,,,,,,,,,,,,,,,0,,,,,,,,,,,,,,,,,,,,,,,,,938.0526540629799,None,938.0526540629799,None,left,0,7.385373962984886,938.0526540629799,None,945.5159671409638,None,,,,,,,,,,,,,,,,,,,,,,,,,,,,,,,,,,21,Female,19,001,2021_Mar_10_1429,cal_abstract,2020.2.4,None,
,,,,Fix2,stimuli/Dangerous/54.jpg,left,,,,,,,,,,,,0,25,25,25,,,,,,,,,,,,,,,,,,,,,,,,,,,,,,,,,,,,,,,,1,,,,,,,,,,,,,,,,,,,,,,,,,946.299134180008,None,946.299134180008,None,left,1,1.7784822349785827,946.299134180008,None,948.1539834039868,None,,,,,,,,,,,,,,,,,,,,,,,,,,,,,,,,,,21,Female,19,001,2021_Mar_10_1429,cal_abstract,2020.2.4,None,
,,,,Cond,stimuli/Wealth/13.jpg,right,,,,,,,,,,,,0,26,26,26,,,,,,,,,,,,,,,,,,,,,,,,,,,,,,,,,,,,,,,,1,,,,,,,,,,,,,,,,,,,,,,,,,949.0089445330086,None,949.0089445330086,None,right,1,2.019574783043936,949.0089445330086,None,951.0658902190044,None,,,,,,,,,,,,,,,,,,,,,,,,,,,,,,,,,,21,Female,19,001,2021_Mar_10_1429,cal_abstract,2020.2.4,None,
,,,,Fix2,stimuli/Dangerous/24.jpg,left,,,,,,,,,,,,0,27,27,27,,,,,,,,,,,,,,,,,,,,,,,,,,,,,,,,,,,,,,,,1,,,,,,,,,,,,,,,,,,,,,,,,,951.8687881460064,None,951.8687881460064,None,left,1,2.8639732109731995,951.8687881460064,None,954.7682361149928,None,,,,,,,,,,,,,,,,,,,,,,,,,,,,,,,,,,21,Female,19,001,2021_Mar_10_1429,cal_abstract,2020.2.4,None,
,,,,Fix1,stimuli/Smell/14.jpg,right,,,,,,,,,,,,0,28,28,28,,,,,,,,,,,,,,,,,,,,,,,,,,,,,,,,,,,,,,,,1,,,,,,,,,,,,,,,,,,,,,,,,,955.5232352499734,None,955.5232352499734,None,right,1,1.5459919800050557,955.5232352499734,None,957.1347227389924,None,,,,,,,,,,,,,,,,,,,,,,,,,,,,,,,,,,21,Female,19,001,2021_Mar_10_1429,cal_abstract,2020.2.4,None,
,,,,Fix2,stimuli/Dangerous/5.jpg,left,,,,,,,,,,,,0,29,29,29,,,,,,,,,,,,,,,,,,,,,,,,,,,,,,,,,,,,,,,,1,,,,,,,,,,,,,,,,,,,,,,,,,957.9157294160104,None,957.9157294160104,None,left,1,1.7077312739565969,957.9157294160104,None,959.6993756549782,None,,,,,,,,,,,,,,,,,,,,,,,,,,,,,,,,,,21,Female,19,001,2021_Mar_10_1429,cal_abstract,2020.2.4,None,
,,,,Fix1,stimuli/Smell/21.jpg,right,,,,,,,,,,,,0,30,30,30,,,,,,,,,,,,,,,,,,,,,,,,,,,,,,,,,,,,,,,,1,,,,,,,,,,,,,,,,,,,,,,,,,960.4690070800134,None,960.4690070800134,None,right,1,1.6231455609668046,960.4690070800134,None,962.13250835496,None,,,,,,,,,,,,,,,,,,,,,,,,,,,,,,,,,,21,Female,19,001,2021_Mar_10_1429,cal_abstract,2020.2.4,None,
,,,,Fix2,stimuli/Dangerous/28.jpg,left,,,,,,,,,,,,0,31,31,31,,,,,,,,,,,,,,,,,,,,,,,,,,,,,,,,,,,,,,,,1,,,,,,,,,,,,,,,,,,,,,,,,,962.918686584977,None,962.918686584977,None,left,1,1.5532468130113557,962.918686584977,None,964.5507827289985,None,,,,,,,,,,,,,,,,,,,,,,,,,,,,,,,,,,21,Female,19,001,2021_Mar_10_1429,cal_abstract,2020.2.4,None,
,,,,Cond,stimuli/Wealth/39.jpg,right,,,,,,,,,,,,0,32,32,32,,,,,,,,,,,,,,,,,,,,,,,,,,,,,,,,,,,,,,,,1,,,,,,,,,,,,,,,,,,,,,,,,,965.3511962220073,None,965.3511962220073,None,right,1,1.7488674169871956,965.3511962220073,None,967.182587274001,None,,,,,,,,,,,,,,,,,,,,,,,,,,,,,,,,,,21,Female,19,001,2021_Mar_10_1429,cal_abstract,2020.2.4,None,
,,,,Fix1,stimuli/Smell/17.jpg,right,,,,,,,,,,,,0,33,33,33,,,,,,,,,,,,,,,,,,,,,,,,,,,,,,,,,,,,,,,,1,,,,,,,,,,,,,,,,,,,,,,,,,967.9518563029706,None,967.9518563029706,None,right,1,1.5160116540500894,967.9518563029706,None,969.5034336529789,None,,,,,,,,,,,,,,,,,,,,,,,,,,,,,,,,,,21,Female,19,001,2021_Mar_10_1429,cal_abstract,2020.2.4,None,
,,,,Cond,stimuli/Wealth/23.jpg,left,,,,,,,,,,,,0,34,34,34,,,,,,,,,,,,,,,,,,,,,,,,,,,,,,,,,,,,,,,,0,,,,,,,,,,,,,,,,,,,,,,,,,970.2832213049987,None,970.2832213049987,None,right,0,4.867892899026629,970.2832213049987,None,975.1909957400057,None,,,,,,,,,,,,,,,,,,,,,,,,,,,,,,,,,,21,Female,19,001,2021_Mar_10_1429,cal_abstract,2020.2.4,None,
,,,,Fix1,stimuli/Smell/41.jpg,right,,,,,,,,,,,,0,35,35,35,,,,,,,,,,,,,,,,,,,,,,,,,,,,,,,,,,,,,,,,1,,,,,,,,,,,,,,,,,,,,,,,,,975.9660414409591,None,975.9660414409591,None,right,1,1.5005776470061392,975.9660414409591,None,977.531730732997,None,,,,,,,,,,,,,,,,,,,,,,,,,,,,,,,,,,21,Female,19,001,2021_Mar_10_1429,cal_abstract,2020.2.4,None,
,,,,Fix2,stimuli/Dangerous/58.jpg,left,,,,,,,,,,,,0,36,36,36,,,,,,,,,,,,,,,,,,,,,,,,,,,,,,,,,,,,,,,,0,,,,,,,,,,,,,,,,,,,,,,,,,978.2632602869999,None,978.2632602869999,None,right,0,2.069012799009215,978.2632602869999,None,980.4161543599912,None,,,,,,,,,,,,,,,,,,,,,,,,,,,,,,,,,,21,Female,19,001,2021_Mar_10_1429,cal_abstract,2020.2.4,None,
,,,,Fix1,stimuli/Smell/36.jpg,right,,,,,,,,,,,,0,37,37,37,,,,,,,,,,,,,,,,,,,,,,,,,,,,,,,,,,,,,,,,1,,,,,,,,,,,,,,,,,,,,,,,,,981.1817616259796,None,981.1817616259796,None,right,1,1.563426386041101,981.1817616259796,None,982.7843785019941,None,,,,,,,,,,,,,,,,,,,,,,,,,,,,,,,,,,21,Female,19,001,2021_Mar_10_1429,cal_abstract,2020.2.4,None,
,,,,Cond,stimuli/Wealth/1.jpg,left,,,,,,,,,,,,0,38,38,38,,,,,,,,,,,,,,,,,,,,,,,,,,,,,,,,,,,,,,,,0,,,,,,,,,,,,,,,,,,,,,,,,,983.6158117639716,None,983.6158117639716,None,right,0,1.986367499048356,983.6158117639716,None,985.6480887979851,None,,,,,,,,,,,,,,,,,,,,,,,,,,,,,,,,,,21,Female,19,001,2021_Mar_10_1429,cal_abstract,2020.2.4,None,
,,,,Fix2,stimuli/Dangerous/48.jpg,left,,,,,,,,,,,,0,39,39,39,,,,,,,,,,,,,,,,,,,,,,,,,,,,,,,,,,,,,,,,1,,,,,,,,,,,,,,,,,,,,,,,,,986.4029626959818,None,986.4029626959818,None,left,1,2.5552529389970005,986.4029626959818,None,989.0317855940084,None,,,,,,,,,,,,,,,,,,,,,,,,,,,,,,,,,,21,Female,19,001,2021_Mar_10_1429,cal_abstract,2020.2.4,None,
,,,,Fix2,stimuli/Dangerous/10.jpg,left,,,,,,,,,,,,0,40,40,40,,,,,,,,,,,,,,,,,,,,,,,,,,,,,,,,,,,,,,,,1,,,,,,,,,,,,,,,,,,,,,,,,,989.7992340059718,None,989.7992340059718,None,left,1,1.7697714599780738,989.7992340059718,None,991.6488893050118,None,,,,,,,,,,,,,,,,,,,,,,,,,,,,,,,,,,21,Female,19,001,2021_Mar_10_1429,cal_abstract,2020.2.4,None,
,,,,Fix2,stimuli/Dangerous/46.jpg,left,,,,,,,,,,,,0,41,41,41,,,,,,,,,,,,,,,,,,,,,,,,,,,,,,,,,,,,,,,,1,,,,,,,,,,,,,,,,,,,,,,,,,992.4201901259948,None,992.4201901259948,None,left,1,1.6099602889735252,992.4201901259948,None,994.0644445269718,None,,,,,,,,,,,,,,,,,,,,,,,,,,,,,,,,,,21,Female,19,001,2021_Mar_10_1429,cal_abstract,2020.2.4,None,
,,,,Cond,stimuli/Wealth/35.jpg,right,,,,,,,,,,,,0,42,42,42,,,,,,,,,,,,,,,,,,,,,,,,,,,,,,,,,,,,,,,,1,,,,,,,,,,,,,,,,,,,,,,,,,994.881861109985,None,994.881861109985,None,right,1,3.416505818022415,994.881861109985,None,998.3498435649672,None,,,,,,,,,,,,,,,,,,,,,,,,,,,,,,,,,,21,Female,19,001,2021_Mar_10_1429,cal_abstract,2020.2.4,None,
,,,,Cond,stimuli/Wealth/30.jpg,left,,,,,,,,,,,,0,43,43,43,,,,,,,,,,,,,,,,,,,,,,,,,,,,,,,,,,,,,,,,0,,,,,,,,,,,,,,,,,,,,,,,,,999.1471516859601,None,999.1471516859601,None,right,0,6.451658362988383,999.1471516859601,None,1005.6666231239797,None,,,,,,,,,,,,,,,,,,,,,,,,,,,,,,,,,,21,Female,19,001,2021_Mar_10_1429,cal_abstract,2020.2.4,None,
,,,,Fix1,stimuli/Smell/23.jpg,right,,,,,,,,,,,,0,44,44,44,,,,,,,,,,,,,,,,,,,,,,,,,,,,,,,,,,,,,,,,1,,,,,,,,,,,,,,,,,,,,,,,,,1006.4311379599967,None,1006.4311379599967,None,right,1,40.202523520973045,1006.4311379599967,None,1046.714145950973,None,,,,,,,,,,,,,,,,,,,,,,,,,,,,,,,,,,21,Female,19,001,2021_Mar_10_1429,cal_abstract,2020.2.4,None,
,,,,Fix1,stimuli/Smell/2.jpg,right,,,,,,,,,,,,0,45,45,45,,,,,,,,,,,,,,,,,,,,,,,,,,,,,,,,,,,,,,,,1,,,,,,,,,,,,,,,,,,,,,,,,,1047.5579600649653,None,1047.5579600649653,None,right,1,1.440422048966866,1047.5579600649653,None,1049.0311056899955,None,,,,,,,,,,,,,,,,,,,,,,,,,,,,,,,,,,21,Female,19,001,2021_Mar_10_1429,cal_abstract,2020.2.4,None,
,,,,Fix1,stimuli/Smell/32.jpg,right,,,,,,,,,,,,0,46,46,46,,,,,,,,,,,,,,,,,,,,,,,,,,,,,,,,,,,,,,,,1,,,,,,,,,,,,,,,,,,,,,,,,,1049.7993193540024,None,1049.7993193540024,None,right,1,4.819910496007651,1049.7993193540024,None,1054.6984173780074,None,,,,,,,,,,,,,,,,,,,,,,,,,,,,,,,,,,21,Female,19,001,2021_Mar_10_1429,cal_abstract,2020.2.4,None,
,,,,Fix1,stimuli/Smell/6.jpg,right,,,,,,,,,,,,0,47,47,47,,,,,,,,,,,,,,,,,,,,,,,,,,,,,,,,,,,,,,,,1,,,,,,,,,,,,,,,,,,,,,,,,,1055.4772942769923,None,1055.4772942769923,None,right,1,2.345308485964779,1055.4772942769923,None,1057.8820355929784,None,,,,,,,,,,,,,,,,,,,,,,,,,,,,,,,,,,21,Female,19,001,2021_Mar_10_1429,cal_abstract,2020.2.4,None,
,,,,Fix2,stimuli/Dangerous/11.jpg,left,,,,,,,,,,,,0,48,48,48,,,,,,,,,,,,,,,,,,,,,,,,,,,,,,,,,,,,,,,,1,,,,,,,,,,,,,,,,,,,,,,,,,1058.6637227289611,None,1058.6637227289611,None,left,1,1.8016568399616517,1058.6637227289611,None,1060.4984474219964,None,,,,,,,,,,,,,,,,,,,,,,,,,,,,,,,,,,21,Female,19,001,2021_Mar_10_1429,cal_abstract,2020.2.4,None,
,,,,Cond,stimuli/Wealth/0.jpg,right,,,,,,,,,,,,0,49,49,49,,,,,,,,,,,,,,,,,,,,,,,,,,,,,,,,,,,,,,,,0,,,,,,,,,,,,,,,,,,,,,,,,,1061.2982654270018,None,1061.2982654270018,None,left,0,3.218958596000448,1061.2982654270018,None,1064.5804088519653,None,,,,,,,,,,,,,,,,,,,,,,,,,,,,,,,,,,21,Female,19,001,2021_Mar_10_1429,cal_abstract,2020.2.4,None,
,,,,Cond,stimuli/Wealth/25.jpg,left,,,,,,,,,,,,0,50,50,50,,,,,,,,,,,,,,,,,,,,,,,,,,,,,,,,,,,,,,,,0,,,,,,,,,,,,,,,,,,,,,,,,,1065.3461452409974,None,1065.3461452409974,None,right,0,2.5691565630258992,1065.3461452409974,None,1067.9461530990084,None,,,,,,,,,,,,,,,,,,,,,,,,,,,,,,,,,,21,Female,19,001,2021_Mar_10_1429,cal_abstract,2020.2.4,None,
,,,,Cond,stimuli/Wealth/56.jpg,right,,,,,,,,,,,,0,51,51,51,,,,,,,,,,,,,,,,,,,,,,,,,,,,,,,,,,,,,,,,0,,,,,,,,,,,,,,,,,,,,,,,,,1068.787997159001,None,1068.787997159001,None,left,0,2.244591081980616,1068.787997159001,None,1071.0968578369939,None,,,,,,,,,,,,,,,,,,,,,,,,,,,,,,,,,,21,Female,19,001,2021_Mar_10_1429,cal_abstract,2020.2.4,None,
,,,,Fix1,stimuli/Smell/52.jpg,right,,,,,,,,,,,,0,52,52,52,,,,,,,,,,,,,,,,,,,,,,,,,,,,,,,,,,,,,,,,1,,,,,,,,,,,,,,,,,,,,,,,,,1071.8353338509914,None,1071.8353338509914,None,right,1,1.650117376993876,1071.8353338509914,None,1073.5329558849917,None,,,,,,,,,,,,,,,,,,,,,,,,,,,,,,,,,,21,Female,19,001,2021_Mar_10_1429,cal_abstract,2020.2.4,None,
,,,,Cond,stimuli/Wealth/18.jpg,left,,,,,,,,,,,,0,53,53,53,,,,,,,,,,,,,,,,,,,,,,,,,,,,,,,,,,,,,,,,1,,,,,,,,,,,,,,,,,,,,,,,,,1074.3645437230007,None,1074.3645437230007,None,left,1,2.0219216939876787,1074.3645437230007,None,1076.4657893679687,None,,,,,,,,,,,,,,,,,,,,,,,,,,,,,,,,,,21,Female,19,001,2021_Mar_10_1429,cal_abstract,2020.2.4,None,
,,,,Cond,stimuli/Wealth/44.jpg,right,,,,,,,,,,,,0,54,54,54,,,,,,,,,,,,,,,,,,,,,,,,,,,,,,,,,,,,,,,,1,,,,,,,,,,,,,,,,,,,,,,,,,1077.2303609899827,None,1077.2303609899827,None,right,1,2.718638363003265,1077.2303609899827,None,1079.9850004219916,None,,,,,,,,,,,,,,,,,,,,,,,,,,,,,,,,,,21,Female,19,001,2021_Mar_10_1429,cal_abstract,2020.2.4,None,
,,,,Cond,stimuli/Wealth/3.jpg,left,,,,,,,,,,,,0,55,55,55,,,,,,,,,,,,,,,,,,,,,,,,,,,,,,,,,,,,,,,,1,,,,,,,,,,,,,,,,,,,,,,,,,1080.7653072800022,None,1080.7653072800022,None,left,1,5.618324107024819,1080.7653072800022,None,1086.449515028973,None,,,,,,,,,,,,,,,,,,,,,,,,,,,,,,,,,,21,Female,19,001,2021_Mar_10_1429,cal_abstract,2020.2.4,None,
,,,,Fix2,stimuli/Dangerous/8.jpg,left,,,,,,,,,,,,0,56,56,56,,,,,,,,,,,,,,,,,,,,,,,,,,,,,,,,,,,,,,,,1,,,,,,,,,,,,,,,,,,,,,,,,,1087.2480022750096,None,1087.2480022750096,None,left,1,3.285038991016336,1087.2480022750096,None,1090.5662563379738,None,,,,,,,,,,,,,,,,,,,,,,,,,,,,,,,,,,21,Female,19,001,2021_Mar_10_1429,cal_abstract,2020.2.4,None,
,,,,Fix2,stimuli/Dangerous/34.jpg,left,,,,,,,,,,,,0,57,57,57,,,,,,,,,,,,,,,,,,,,,,,,,,,,,,,,,,,,,,,,1,,,,,,,,,,,,,,,,,,,,,,,,,1091.3975537709775,None,1091.3975537709775,None,left,1,1.71026169200195,1091.3975537709775,None,1093.1482505029999,None,,,,,,,,,,,,,,,,,,,,,,,,,,,,,,,,,,21,Female,19,001,2021_Mar_10_1429,cal_abstract,2020.2.4,None,
,,,,Fix1,stimuli/Smell/56.jpg,right,,,,,,,,,,,,0,58,58,58,,,,,,,,,,,,,,,,,,,,,,,,,,,,,,,,,,,,,,,,1,,,,,,,,,,,,,,,,,,,,,,,,,1093.9472963419976,None,1093.9472963419976,None,right,1,1.8024296689545736,1093.9472963419976,None,1095.795967040991,None,,,,,,,,,,,,,,,,,,,,,,,,,,,,,,,,,,21,Female,19,001,2021_Mar_10_1429,cal_abstract,2020.2.4,None,
,,,,Cond,stimuli/Wealth/48.jpg,left,,,,,,,,,,,,0,59,59,59,,,,,,,,,,,,,,,,,,,,,,,,,,,,,,,,,,,,,,,,0,,,,,,,,,,,,,,,,,,,,,,,,,1096.5801741129835,None,1096.5801741129835,None,right,0,2.486537310993299,1096.5801741129835,None,1099.1329559109872,None,,,,,,,,,,,,,,,,,,,,,,,,,,,,,,,,,,21,Female,19,001,2021_Mar_10_1429,cal_abstract,2020.2.4,None,
,,,,Fix2,stimuli/Dangerous/55.jpg,left,,,,,,,,,,,,0,60,60,60,,,,,,,,,,,,,,,,,,,,,,,,,,,,,,,,,,,,,,,,1,,,,,,,,,,,,,,,,,,,,,,,,,1099.8668418619782,None,1099.8668418619782,None,left,1,3.365542978979647,1099.8668418619782,None,1103.2675866970094,None,,,,,,,,,,,,,,,,,,,,,,,,,,,,,,,,,,21,Female,19,001,2021_Mar_10_1429,cal_abstract,2020.2.4,None,
,,,,Fix2,stimuli/Dangerous/30.jpg,left,,,,,,,,,,,,0,61,61,61,,,,,,,,,,,,,,,,,,,,,,,,,,,,,,,,,,,,,,,,1,,,,,,,,,,,,,,,,,,,,,,,,,1104.068106257997,None,1104.068106257997,None,left,1,1.7607232740265317,1104.068106257997,None,1105.8473847949645,None,,,,,,,,,,,,,,,,,,,,,,,,,,,,,,,,,,21,Female,19,001,2021_Mar_10_1429,cal_abstract,2020.2.4,None,
,,,,Fix2,stimuli/Dangerous/4.jpg,left,,,,,,,,,,,,0,62,62,62,,,,,,,,,,,,,,,,,,,,,,,,,,,,,,,,,,,,,,,,1,,,,,,,,,,,,,,,,,,,,,,,,,1106.6468646680005,None,1106.6468646680005,None,left,1,1.5441511240205728,1106.6468646680005,None,1108.215119244007,None,,,,,,,,,,,,,,,,,,,,,,,,,,,,,,,,,,21,Female,19,001,2021_Mar_10_1429,cal_abstract,2020.2.4,None,
,,,,Fix1,stimuli/Smell/57.jpg,right,,,,,,,,,,,,0,63,63,63,,,,,,,,,,,,,,,,,,,,,,,,,,,,,,,,,,,,,,,,1,,,,,,,,,,,,,,,,,,,,,,,,,1109.0140327119734,None,1109.0140327119734,None,right,1,1.426581454987172,1109.0140327119734,None,1110.4814354899572,None,,,,,,,,,,,,,,,,,,,,,,,,,,,,,,,,,,21,Female,19,001,2021_Mar_10_1429,cal_abstract,2020.2.4,None,
,,,,Fix2,stimuli/Dangerous/1.jpg,left,,,,,,,,,,,,0,64,64,64,,,,,,,,,,,,,,,,,,,,,,,,,,,,,,,,,,,,,,,,1,,,,,,,,,,,,,,,,,,,,,,,,,1111.2801966620027,None,1111.2801966620027,None,left,1,1.7465288949897513,1111.2801966620027,None,1113.1152536239824,None,,,,,,,,,,,,,,,,,,,,,,,,,,,,,,,,,,21,Female,19,001,2021_Mar_10_1429,cal_abstract,2020.2.4,None,
,,,,Cond,stimuli/Wealth/15.jpg,right,,,,,,,,,,,,0,65,65,65,,,,,,,,,,,,,,,,,,,,,,,,,,,,,,,,,,,,,,,,1,,,,,,,,,,,,,,,,,,,,,,,,,1113.8474257729831,None,1113.8474257729831,None,right,1,1.6350416149944067,1113.8474257729831,None,1115.5636691089603,None,,,,,,,,,,,,,,,,,,,,,,,,,,,,,,,,,,21,Female,19,001,2021_Mar_10_1429,cal_abstract,2020.2.4,None,
,,,,Fix1,stimuli/Smell/58.jpg,right,,,,,,,,,,,,0,66,66,66,,,,,,,,,,,,,,,,,,,,,,,,,,,,,,,,,,,,,,,,1,,,,,,,,,,,,,,,,,,,,,,,,,1116.3120686630136,None,1116.3120686630136,None,right,1,1.9188666850095615,1116.3120686630136,None,1118.2952388259582,None,,,,,,,,,,,,,,,,,,,,,,,,,,,,,,,,,,21,Female,19,001,2021_Mar_10_1429,cal_abstract,2020.2.4,None,
,,,,Fix2,stimuli/Dangerous/39.jpg,left,,,,,,,,,,,,0,67,67,67,,,,,,,,,,,,,,,,,,,,,,,,,,,,,,,,,,,,,,,,1,,,,,,,,,,,,,,,,,,,,,,,,,1119.117267205962,None,1119.117267205962,None,left,1,1.4810982890194282,1119.117267205962,None,1120.6766246979823,None,,,,,,,,,,,,,,,,,,,,,,,,,,,,,,,,,,21,Female,19,001,2021_Mar_10_1429,cal_abstract,2020.2.4,None,
,,,,Cond,stimuli/Wealth/46.jpg,right,,,,,,,,,,,,0,68,68,68,,,,,,,,,,,,,,,,,,,,,,,,,,,,,,,,,,,,,,,,1,,,,,,,,,,,,,,,,,,,,,,,,,1121.4176198639907,None,1121.4176198639907,None,right,1,2.716476712957956,1121.4176198639907,None,1124.182305563998,None,,,,,,,,,,,,,,,,,,,,,,,,,,,,,,,,,,21,Female,19,001,2021_Mar_10_1429,cal_abstract,2020.2.4,None,
,,,,Fix1,stimuli/Smell/33.jpg,right,,,,,,,,,,,,0,69,69,69,,,,,,,,,,,,,,,,,,,,,,,,,,,,,,,,,,,,,,,,1,,,,,,,,,,,,,,,,,,,,,,,,,1124.9803197389701,None,1124.9803197389701,None,right,1,1.4957326219882816,1124.9803197389701,None,1126.5466740909615,None,,,,,,,,,,,,,,,,,,,,,,,,,,,,,,,,,,21,Female,19,001,2021_Mar_10_1429,cal_abstract,2020.2.4,None,
,,,,Cond,stimuli/Wealth/6.jpg,left,,,,,,,,,,,,0,70,70,70,,,,,,,,,,,,,,,,,,,,,,,,,,,,,,,,,,,,,,,,0,,,,,,,,,,,,,,,,,,,,,,,,,1127.3289951629704,None,1127.3289951629704,None,right,0,1.9440034379949793,1127.3289951629704,None,1129.3288960359641,None,,,,,,,,,,,,,,,,,,,,,,,,,,,,,,,,,,21,Female,19,001,2021_Mar_10_1429,cal_abstract,2020.2.4,None,
,,,,Fix2,stimuli/Dangerous/38.jpg,left,,,,,,,,,,,,0,71,71,71,,,,,,,,,,,,,,,,,,,,,,,,,,,,,,,,,,,,,,,,1,,,,,,,,,,,,,,,,,,,,,,,,,1130.0962955600116,None,1130.0962955600116,None,left,1,1.6687447489821352,1130.0962955600116,None,1131.901842175983,None,,,,,,,,,,,,,,,,,,,,,,,,,,,,,,,,,,21,Female,19,001,2021_Mar_10_1429,cal_abstract,2020.2.4,None,
,,,,Cond,stimuli/Wealth/17.jpg,right,,,,,,,,,,,,0,72,72,72,,,,,,,,,,,,,,,,,,,,,,,,,,,,,,,,,,,,,,,,1,,,,,,,,,,,,,,,,,,,,,,,,,1132.6985735750059,None,1132.6985735750059,None,right,1,3.8836304810247384,1132.6985735750059,None,1136.647910639993,None,,,,,,,,,,,,,,,,,,,,,,,,,,,,,,,,,,21,Female,19,001,2021_Mar_10_1429,cal_abstract,2020.2.4,None,
,,,,Fix2,stimuli/Dangerous/9.jpg,left,,,,,,,,,,,,0,73,73,73,,,,,,,,,,,,,,,,,,,,,,,,,,,,,,,,,,,,,,,,1,,,,,,,,,,,,,,,,,,,,,,,,,1137.419143548992,None,1137.419143548992,None,left,1,1.4758912609540857,1137.419143548992,None,1138.9644867859897,None,,,,,,,,,,,,,,,,,,,,,,,,,,,,,,,,,,21,Female,19,001,2021_Mar_10_1429,cal_abstract,2020.2.4,None,
,,,,Fix1,stimuli/Smell/44.jpg,right,,,,,,,,,,,,0,74,74,74,,,,,,,,,,,,,,,,,,,,,,,,,,,,,,,,,,,,,,,,1,,,,,,,,,,,,,,,,,,,,,,,,,1139.8133985339664,None,1139.8133985339664,None,right,1,1.4099469300126657,1139.8133985339664,None,1141.2460570679978,None,,,,,,,,,,,,,,,,,,,,,,,,,,,,,,,,,,21,Female,19,001,2021_Mar_10_1429,cal_abstract,2020.2.4,None,
,,,,Fix2,stimuli/Dangerous/50.jpg,left,,,,,,,,,,,,0,75,75,75,,,,,,,,,,,,,,,,,,,,,,,,,,,,,,,,,,,,,,,,1,,,,,,,,,,,,,,,,,,,,,,,,,1142.0179366169614,None,1142.0179366169614,None,left,1,1.8910980729851872,1142.0179366169614,None,1143.9311315899831,None,,,,,,,,,,,,,,,,,,,,,,,,,,,,,,,,,,21,Female,19,001,2021_Mar_10_1429,cal_abstract,2020.2.4,None,
,,,,Fix2,stimuli/Dangerous/29.jpg,left,,,,,,,,,,,,0,76,76,76,,,,,,,,,,,,,,,,,,,,,,,,,,,,,,,,,,,,,,,,1,,,,,,,,,,,,,,,,,,,,,,,,,1144.7657900979975,None,1144.7657900979975,None,left,1,1.96045775199309,1144.7657900979975,None,1146.7486069599981,None,,,,,,,,,,,,,,,,,,,,,,,,,,,,,,,,,,21,Female,19,001,2021_Mar_10_1429,cal_abstract,2020.2.4,None,
,,,,Fix1,stimuli/Smell/4.jpg,right,,,,,,,,,,,,0,77,77,77,,,,,,,,,,,,,,,,,,,,,,,,,,,,,,,,,,,,,,,,1,,,,,,,,,,,,,,,,,,,,,,,,,1147.5468494310044,None,1147.5468494310044,None,right,1,1.7104832869954407,1147.5468494310044,None,1149.3149117070134,None,,,,,,,,,,,,,,,,,,,,,,,,,,,,,,,,,,21,Female,19,001,2021_Mar_10_1429,cal_abstract,2020.2.4,None,
,,,,Cond,stimuli/Wealth/47.jpg,left,,,,,,,,,,,,0,78,78,78,,,,,,,,,,,,,,,,,,,,,,,,,,,,,,,,,,,,,,,,0,,,,,,,,,,,,,,,,,,,,,,,,,1150.1309916310129,None,1150.1309916310129,None,right,0,2.6868642639601603,1150.1309916310129,None,1152.8856938279932,None,,,,,,,,,,,,,,,,,,,,,,,,,,,,,,,,,,21,Female,19,001,2021_Mar_10_1429,cal_abstract,2020.2.4,None,
,,,,Fix1,stimuli/Smell/12.jpg,right,,,,,,,,,,,,0,79,79,79,,,,,,,,,,,,,,,,,,,,,,,,,,,,,,,,,,,,,,,,1,,,,,,,,,,,,,,,,,,,,,,,,,1153.6180676950025,None,1153.6180676950025,None,right,1,1.748846574977506,1153.6180676950025,None,1155.400345586997,None,,,,,,,,,,,,,,,,,,,,,,,,,,,,,,,,,,21,Female,19,001,2021_Mar_10_1429,cal_abstract,2020.2.4,None,
,,,,Fix1,stimuli/Smell/8.jpg,right,,,,,,,,,,,,0,80,80,80,,,,,,,,,,,,,,,,,,,,,,,,,,,,,,,,,,,,,,,,1,,,,,,,,,,,,,,,,,,,,,,,,,1156.2178270139848,None,1156.2178270139848,None,right,1,1.7912783679785207,1156.2178270139848,None,1158.0806055289577,None,,,,,,,,,,,,,,,,,,,,,,,,,,,,,,,,,,21,Female,19,001,2021_Mar_10_1429,cal_abstract,2020.2.4,None,
,,,,Cond,stimuli/Wealth/57.jpg,left,,,,,,,,,,,,0,81,81,81,,,,,,,,,,,,,,,,,,,,,,,,,,,,,,,,,,,,,,,,1,,,,,,,,,,,,,,,,,,,,,,,,,1158.8634531269781,None,1158.8634531269781,None,left,1,1.7632092160056345,1158.8634531269781,None,1160.6628956109635,None,,,,,,,,,,,,,,,,,,,,,,,,,,,,,,,,,,21,Female,19,001,2021_Mar_10_1429,cal_abstract,2020.2.4,None,
,,,,Cond,stimuli/Wealth/2.jpg,right,,,,,,,,,,,,0,82,82,82,,,,,,,,,,,,,,,,,,,,,,,,,,,,,,,,,,,,,,,,0,,,,,,,,,,,,,,,,,,,,,,,,,1161.4621814209968,None,1161.4621814209968,None,left,0,2.0617849950212985,1161.4621814209968,None,1163.5970222550095,None,,,,,,,,,,,,,,,,,,,,,,,,,,,,,,,,,,21,Female,19,001,2021_Mar_10_1429,cal_abstract,2020.2.4,None,
,,,,Cond,stimuli/Wealth/4.jpg,left,,,,,,,,,,,,0,83,83,83,,,,,,,,,,,,,,,,,,,,,,,,,,,,,,,,,,,,,,,,1,,,,,,,,,,,,,,,,,,,,,,,,,1164.3981804389623,None,1164.3981804389623,None,left,1,2.69585278298473,1164.3981804389623,None,1167.1654958719737,None,,,,,,,,,,,,,,,,,,,,,,,,,,,,,,,,,,21,Female,19,001,2021_Mar_10_1429,cal_abstract,2020.2.4,None,
,,,,Fix1,stimuli/Smell/39.jpg,right,,,,,,,,,,,,0,84,84,84,,,,,,,,,,,,,,,,,,,,,,,,,,,,,,,,,,,,,,,,1,,,,,,,,,,,,,,,,,,,,,,,,,1167.8985310219578,None,1167.8985310219578,None,right,1,1.5916275499621406,1167.8985310219578,None,1169.5652729030116,None,,,,,,,,,,,,,,,,,,,,,,,,,,,,,,,,,,21,Female,19,001,2021_Mar_10_1429,cal_abstract,2020.2.4,None,
,,,,Fix1,stimuli/Smell/38.jpg,right,,,,,,,,,,,,0,85,85,85,,,,,,,,,,,,,,,,,,,,,,,,,,,,,,,,,,,,,,,,1,,,,,,,,,,,,,,,,,,,,,,,,,1170.3634609179571,None,1170.3634609179571,None,right,1,1.8714458479662426,1170.3634609179571,None,1172.2993361270055,None,,,,,,,,,,,,,,,,,,,,,,,,,,,,,,,,,,21,Female,19,001,2021_Mar_10_1429,cal_abstract,2020.2.4,None,
,,,,Fix2,stimuli/Dangerous/20.jpg,left,,,,,,,,,,,,0,86,86,86,,,,,,,,,,,,,,,,,,,,,,,,,,,,,,,,,,,,,,,,1,,,,,,,,,,,,,,,,,,,,,,,,,1173.158283834986,None,1173.158283834986,None,left,1,1.4388338990393095,1173.158283834986,None,1174.6626220939797,None,,,,,,,,,,,,,,,,,,,,,,,,,,,,,,,,,,21,Female,19,001,2021_Mar_10_1429,cal_abstract,2020.2.4,None,
,,,,Fix2,stimuli/Dangerous/47.jpg,left,,,,,,,,,,,,0,87,87,87,,,,,,,,,,,,,,,,,,,,,,,,,,,,,,,,,,,,,,,,1,,,,,,,,,,,,,,,,,,,,,,,,,1175.414340295014,None,1175.414340295014,None,left,1,2.0549077820032835,1175.414340295014,None,1177.4992654650123,None,,,,,,,,,,,,,,,,,,,,,,,,,,,,,,,,,,21,Female,19,001,2021_Mar_10_1429,cal_abstract,2020.2.4,None,
,,,,Fix1,stimuli/Smell/35.jpg,right,,,,,,,,,,,,0,88,88,88,,,,,,,,,,,,,,,,,,,,,,,,,,,,,,,,,,,,,,,,1,,,,,,,,,,,,,,,,,,,,,,,,,1178.311450460984,None,1178.311450460984,None,right,1,1.6094373810337856,1178.311450460984,None,1179.9962491120095,None,,,,,,,,,,,,,,,,,,,,,,,,,,,,,,,,,,21,Female,19,001,2021_Mar_10_1429,cal_abstract,2020.2.4,None,
,,,,Cond,stimuli/Wealth/40.jpg,left,,,,,,,,,,,,0,89,89,89,,,,,,,,,,,,,,,,,,,,,,,,,,,,,,,,,,,,,,,,1,,,,,,,,,,,,,,,,,,,,,,,,,1180.780398354982,None,1180.780398354982,None,left,1,1.7633968149893917,1180.780398354982,None,1182.5655086369952,None,,,,,,,,,,,,,,,,,,,,,,,,,,,,,,,,,,21,Female,19,001,2021_Mar_10_1429,cal_abstract,2020.2.4,None,
,,,,Fix2,stimuli/Dangerous/14.jpg,left,,,,,,,,,,,,0,90,90,90,,,,,,,,,,,,,,,,,,,,,,,,,,,,,,,,,,,,,,,,1,,,,,,,,,,,,,,,,,,,,,,,,,1183.3815329399658,None,1183.3815329399658,None,left,1,1.5372236300026998,1183.3815329399658,None,1184.9466379479854,None,,,,,,,,,,,,,,,,,,,,,,,,,,,,,,,,,,21,Female,19,001,2021_Mar_10_1429,cal_abstract,2020.2.4,None,
