Text,Block1Type,Block1Stim,Block1Corr,Block2Type,Block2Stim,Block2Corr,Block3Type,Block3Stim,Block3Corr,Instruction_loop.thisRepN,Instruction_loop.thisTrialN,Instruction_loop.thisN,Instruction_loop.thisIndex,Block1_loop.thisRepN,Block1_loop.thisTrialN,Block1_loop.thisN,Block1_loop.thisIndex,Block2_loop.thisRepN,Block2_loop.thisTrialN,Block2_loop.thisN,Block2_loop.thisIndex,Block3_loop.thisRepN,Block3_loop.thisTrialN,Block3_loop.thisN,Block3_loop.thisIndex,welcome_text1.started,welcome_text1.stopped,welcome_text2.started,welcome_text2.stopped,welcome_text3.started,welcome_text3.stopped,welcome_resp.keys,welcome_resp.rt,welcome_resp.started,welcome_resp.stopped,instruct_text1.started,instruct_text1.stopped,instruct_text2.started,instruct_text2.stopped,instruct_resp1.keys,instruct_resp1.rt,instruct_resp1.started,instruct_resp1.stopped,start_text1.started,start_text1.stopped,start_text2.started,start_text2.stopped,start_resp1.keys,start_resp1.rt,start_resp1.started,start_resp1.stopped,image1.started,image1.stopped,text1.started,text1.stopped,key_resp1.keys,key_resp1.corr,key_resp1.rt,key_resp1.started,key_resp1.stopped,trialCorrect,feedback_text1.started,feedback_text1.stopped,break_text1.started,break_text1.stopped,break_resp1.keys,break_resp1.rt,break_resp1.started,break_resp1.stopped,intructRemind_text1.started,intructRemind_text1.stopped,instructRemind_text2.started,instructRemind_text2.stopped,instructRemind_resp1.keys,instructRemind_resp1.rt,instructRemind_resp1.started,instructRemind_resp1.stopped,start_text3.started,start_text3.stopped,start_text4.started,start_text4.stopped,start_resp2.keys,start_resp2.rt,start_resp2.started,start_resp2.stopped,image2.started,image2.stopped,text2.started,text2.stopped,key_resp2.keys,key_resp2.corr,key_resp2.rt,key_resp2.started,key_resp2.stopped,feedback_text2.started,feedback_text2.stopped,break_text2.started,break_text2.stopped,break_resp2.keys,break_resp2.rt,break_resp2.started,break_resp2.stopped,start_text5.started,start_text5.stopped,start_text6.started,start_text6.stopped,start_resp3.keys,start_resp3.rt,start_resp3.started,start_resp3.stopped,image3.started,image3.stopped,text3.started,text3.stopped,key_resp3.keys,key_resp3.corr,key_resp3.rt,key_resp3.started,key_resp3.stopped,feedback_text3.started,feedback_text3.stopped,end_text1.started,end_text1.stopped,end_text2.started,end_text2.stopped,end_resp.keys,end_resp.rt,end_resp.started,end_resp.stopped,participant,sex,age,session,date,expName,psychopyVersion,frameRate,
,,,,,,,,,,,,,,,,,,,,,,,,,,61.026466747000086,None,61.026466747000086,None,61.026466747000086,None,return,77.79422587500085,61.026466747000086,None,,,,,,,,,,,,,,,,,,,,,,,,,,,,,,,,,,,,,,,,,,,,,,,,,,,,,,,,,,,,,,,,,,,,,,,,,,,,,,,,,,,,,,,,,,,,,,,10,Female,43,001,2021_Mar_09_2103,cal_abstract,2020.2.4,60.00275940576783,
"You will be presented with a series of images. It is your job to learn, through trial and error, whether the “Left” or “Right” arrow key should be pressed for each image.",,,,,,,,,,0,0,0,0,,,,,,,,,,,,,,,,,,,,,,,138.88173060699773,None,138.88173060699773,None,return,3.641343349998351,138.88173060699773,None,,,,,,,,,,,,,,,,,,,,,,,,,,,,,,,,,,,,,,,,,,,,,,,,,,,,,,,,,,,,,,,,,,,,,,,,,,,,,,,,,,,,,,,10,Female,43,001,2021_Mar_09_2103,cal_abstract,2020.2.4,60.00275940576783,
"For some images you should always press “Left”, and for others you should always press “Right” arrow key.",,,,,,,,,,0,1,1,1,,,,,,,,,,,,,,,,,,,,,,,142.54937839699778,None,142.54937839699778,None,return,0.9114844530013215,142.54937839699778,None,,,,,,,,,,,,,,,,,,,,,,,,,,,,,,,,,,,,,,,,,,,,,,,,,,,,,,,,,,,,,,,,,,,,,,,,,,,,,,,,,,,,,,,10,Female,43,001,2021_Mar_09_2103,cal_abstract,2020.2.4,60.00275940576783,
Some images are special: the correct response is the opposite of the preceding correct response.,,,,,,,,,,0,2,2,2,,,,,,,,,,,,,,,,,,,,,,,143.49871606899978,None,143.49871606899978,None,return,1.024120115002006,143.49871606899978,None,,,,,,,,,,,,,,,,,,,,,,,,,,,,,,,,,,,,,,,,,,,,,,,,,,,,,,,,,,,,,,,,,,,,,,,,,,,,,,,,,,,,,,,10,Female,43,001,2021_Mar_09_2103,cal_abstract,2020.2.4,60.00275940576783,
"That is, if the previous correct answer was “Left” then the correct response would now be “Right”.",,,,,,,,,,0,3,3,3,,,,,,,,,,,,,,,,,,,,,,,144.56549230900055,None,144.56549230900055,None,return,2.96027115799734,144.56549230900055,None,,,,,,,,,,,,,,,,,,,,,,,,,,,,,,,,,,,,,,,,,,,,,,,,,,,,,,,,,,,,,,,,,,,,,,,,,,,,,,,,,,,,,,,10,Female,43,001,2021_Mar_09_2103,cal_abstract,2020.2.4,60.00275940576783,
"After each response, you will be told whether you got the item correct or incorrect.",,,,,,,,,,0,4,4,4,,,,,,,,,,,,,,,,,,,,,,,147.5657962419973,None,147.5657962419973,None,return,2.5676322299987078,147.5657962419973,None,,,,,,,,,,,,,,,,,,,,,,,,,,,,,,,,,,,,,,,,,,,,,,,,,,,,,,,,,,,,,,,,,,,,,,,,,,,,,,,,,,,,,,,10,Female,43,001,2021_Mar_09_2103,cal_abstract,2020.2.4,60.00275940576783,
"You can take as long as you like on each image, but the task will not continue until you press the “Left” or “Right” arrow key.",,,,,,,,,,0,5,5,5,,,,,,,,,,,,,,,,,,,,,,,150.18261303399777,None,150.18261303399777,None,return,3.9170455200001015,150.18261303399777,None,,,,,,,,,,,,,,,,,,,,,,,,,,,,,,,,,,,,,,,,,,,,,,,,,,,,,,,,,,,,,,,,,,,,,,,,,,,,,,,,,,,,,,,10,Female,43,001,2021_Mar_09_2103,cal_abstract,2020.2.4,60.00275940576783,
"The experiment will have three blocks, each block will take approximately 10 minutes to complete.",,,,,,,,,,0,6,6,6,,,,,,,,,,,,,,,,,,,,,,,154.14951321199987,None,154.14951321199987,None,return,1.7868127420006203,154.14951321199987,None,,,,,,,,,,,,,,,,,,,,,,,,,,,,,,,,,,,,,,,,,,,,,,,,,,,,,,,,,,,,,,,,,,,,,,,,,,,,,,,,,,,,,,,10,Female,43,001,2021_Mar_09_2103,cal_abstract,2020.2.4,60.00275940576783,
,,,,,,,,,,,,,,,,,,,,,,,,,,,,,,,,,,,,,,,,,,,,155.96622663199742,None,155.96622663199742,None,s,2.8717699549997633,155.96622663199742,None,,,,,,,,,,,,,,,,,,,,,,,,,,,,,,,,,,,,,,,,,,,,,,,,,,,,,,,,,,,,,,,,,,,,,,,,,,,,,,,10,Female,43,001,2021_Mar_09_2103,cal_abstract,2020.2.4,60.00275940576783,
,Fix2,stimuli/Smell/28.jpg,right,,,,,,,,,,,0,0,0,0,,,,,,,,,,,,,,,,,,,,,,,,,,,,,,,,,,,158.9010995919998,None,158.9010995919998,None,right,1,4.268432079999911,158.9010995919998,None,1,163.2166914119989,None,,,,,,,,,,,,,,,,,,,,,,,,,,,,,,,,,,,,,,,,,,,,,,,,,,,,,,,,,,,,,,,,,,,10,Female,43,001,2021_Mar_09_2103,cal_abstract,2020.2.4,60.00275940576783,
,Cond,stimuli/Healthy/51.jpg,left,,,,,,,,,,,0,1,1,1,,,,,,,,,,,,,,,,,,,,,,,,,,,,,,,,,,,163.98343429399756,None,163.98343429399756,None,right,0,1.368245220000972,163.98343429399756,None,0,165.40007026899912,None,,,,,,,,,,,,,,,,,,,,,,,,,,,,,,,,,,,,,,,,,,,,,,,,,,,,,,,,,,,,,,,,,,,10,Female,43,001,2021_Mar_09_2103,cal_abstract,2020.2.4,60.00275940576783,
,Cond,stimuli/Healthy/30.jpg,right,,,,,,,,,,,0,2,2,2,,,,,,,,,,,,,,,,,,,,,,,,,,,,,,,,,,,166.16640002699933,None,166.16640002699933,None,right,1,2.10109231000024,166.16640002699933,None,1,168.29968997999822,None,,,,,,,,,,,,,,,,,,,,,,,,,,,,,,,,,,,,,,,,,,,,,,,,,,,,,,,,,,,,,,,,,,,10,Female,43,001,2021_Mar_09_2103,cal_abstract,2020.2.4,60.00275940576783,
,Fix2,stimuli/Smell/27.jpg,right,,,,,,,,,,,0,3,3,3,,,,,,,,,,,,,,,,,,,,,,,,,,,,,,,,,,,169.06809724399864,None,169.06809724399864,None,right,1,2.687346604998311,169.06809724399864,None,1,171.78336922900053,None,,,,,,,,,,,,,,,,,,,,,,,,,,,,,,,,,,,,,,,,,,,,,,,,,,,,,,,,,,,,,,,,,,,10,Female,43,001,2021_Mar_09_2103,cal_abstract,2020.2.4,60.00275940576783,
,Cond,stimuli/Healthy/46.jpg,left,,,,,,,,,,,0,4,4,4,,,,,,,,,,,,,,,,,,,,,,,,,,,,,,,,,,,172.55310663699856,None,172.55310663699856,None,left,1,1.0472864570001548,172.55310663699856,None,1,173.6172140819981,None,,,,,,,,,,,,,,,,,,,,,,,,,,,,,,,,,,,,,,,,,,,,,,,,,,,,,,,,,,,,,,,,,,,10,Female,43,001,2021_Mar_09_2103,cal_abstract,2020.2.4,60.00275940576783,
,Cond,stimuli/Healthy/65.jpg,right,,,,,,,,,,,0,5,5,5,,,,,,,,,,,,,,,,,,,,,,,,,,,,,,,,,,,174.38425540900062,None,174.38425540900062,None,right,1,1.0469187349990534,174.38425540900062,None,1,175.45090466699912,None,,,,,,,,,,,,,,,,,,,,,,,,,,,,,,,,,,,,,,,,,,,,,,,,,,,,,,,,,,,,,,,,,,,10,Female,43,001,2021_Mar_09_2103,cal_abstract,2020.2.4,60.00275940576783,
,Fix1,stimuli/Soft/32.jpg,left,,,,,,,,,,,0,6,6,6,,,,,,,,,,,,,,,,,,,,,,,,,,,,,,,,,,,176.2344026840001,None,176.2344026840001,None,left,1,1.8537908329999482,176.2344026840001,None,1,178.1177597019996,None,,,,,,,,,,,,,,,,,,,,,,,,,,,,,,,,,,,,,,,,,,,,,,,,,,,,,,,,,,,,,,,,,,,10,Female,43,001,2021_Mar_09_2103,cal_abstract,2020.2.4,60.00275940576783,
,Fix1,stimuli/Soft/23.jpg,left,,,,,,,,,,,0,7,7,7,,,,,,,,,,,,,,,,,,,,,,,,,,,,,,,,,,,178.88442397199833,None,178.88442397199833,None,right,0,1.1794156300020404,178.88442397199833,None,0,180.08456656899943,None,,,,,,,,,,,,,,,,,,,,,,,,,,,,,,,,,,,,,,,,,,,,,,,,,,,,,,,,,,,,,,,,,,,10,Female,43,001,2021_Mar_09_2103,cal_abstract,2020.2.4,60.00275940576783,
,Fix1,stimuli/Soft/47.jpg,left,,,,,,,,,,,0,8,8,8,,,,,,,,,,,,,,,,,,,,,,,,,,,,,,,,,,,180.8515041139981,None,180.8515041139981,None,right,0,1.7442060699977446,180.8515041139981,None,0,182.61796905699885,None,,,,,,,,,,,,,,,,,,,,,,,,,,,,,,,,,,,,,,,,,,,,,,,,,,,,,,,,,,,,,,,,,,,10,Female,43,001,2021_Mar_09_2103,cal_abstract,2020.2.4,60.00275940576783,
,Fix2,stimuli/Smell/49.jpg,right,,,,,,,,,,,0,9,9,9,,,,,,,,,,,,,,,,,,,,,,,,,,,,,,,,,,,183.38477292899915,None,183.38477292899915,None,right,1,0.5677264829973865,183.38477292899915,None,1,183.98455723900042,None,,,,,,,,,,,,,,,,,,,,,,,,,,,,,,,,,,,,,,,,,,,,,,,,,,,,,,,,,,,,,,,,,,,10,Female,43,001,2021_Mar_09_2103,cal_abstract,2020.2.4,60.00275940576783,
,Cond,stimuli/Healthy/52.jpg,left,,,,,,,,,,,0,10,10,10,,,,,,,,,,,,,,,,,,,,,,,,,,,,,,,,,,,184.75141050199818,None,184.75141050199818,None,left,1,1.1271240499991109,184.75141050199818,None,1,185.9015106839979,None,,,,,,,,,,,,,,,,,,,,,,,,,,,,,,,,,,,,,,,,,,,,,,,,,,,,,,,,,,,,,,,,,,,10,Female,43,001,2021_Mar_09_2103,cal_abstract,2020.2.4,60.00275940576783,
,Fix1,stimuli/Soft/49.jpg,left,,,,,,,,,,,0,11,11,11,,,,,,,,,,,,,,,,,,,,,,,,,,,,,,,,,,,186.66841955899872,None,186.66841955899872,None,left,1,1.0719635249988642,186.66841955899872,None,1,187.76828602399837,None,,,,,,,,,,,,,,,,,,,,,,,,,,,,,,,,,,,,,,,,,,,,,,,,,,,,,,,,,,,,,,,,,,,10,Female,43,001,2021_Mar_09_2103,cal_abstract,2020.2.4,60.00275940576783,
,Fix1,stimuli/Soft/39.jpg,left,,,,,,,,,,,0,12,12,12,,,,,,,,,,,,,,,,,,,,,,,,,,,,,,,,,,,188.53514012699816,None,188.53514012699816,None,left,1,0.882209175000753,188.53514012699816,None,1,189.43504176699935,None,,,,,,,,,,,,,,,,,,,,,,,,,,,,,,,,,,,,,,,,,,,,,,,,,,,,,,,,,,,,,,,,,,,10,Female,43,001,2021_Mar_09_2103,cal_abstract,2020.2.4,60.00275940576783,
,Cond,stimuli/Healthy/4.jpg,right,,,,,,,,,,,0,13,13,13,,,,,,,,,,,,,,,,,,,,,,,,,,,,,,,,,,,190.20209117899867,None,190.20209117899867,None,left,0,0.7541373999993084,190.20209117899867,None,0,190.98503453199737,None,,,,,,,,,,,,,,,,,,,,,,,,,,,,,,,,,,,,,,,,,,,,,,,,,,,,,,,,,,,,,,,,,,,10,Female,43,001,2021_Mar_09_2103,cal_abstract,2020.2.4,60.00275940576783,
,Fix2,stimuli/Smell/5.jpg,right,,,,,,,,,,,0,14,14,14,,,,,,,,,,,,,,,,,,,,,,,,,,,,,,,,,,,191.76881939399755,None,191.76881939399755,None,right,1,1.5902012270016712,191.76881939399755,None,1,193.38534498199806,None,,,,,,,,,,,,,,,,,,,,,,,,,,,,,,,,,,,,,,,,,,,,,,,,,,,,,,,,,,,,,,,,,,,10,Female,43,001,2021_Mar_09_2103,cal_abstract,2020.2.4,60.00275940576783,
,Cond,stimuli/Healthy/69.jpg,left,,,,,,,,,,,0,15,15,15,,,,,,,,,,,,,,,,,,,,,,,,,,,,,,,,,,,194.15252058400074,None,194.15252058400074,None,right,0,1.5154461179990903,194.15252058400074,None,0,195.68541788199946,None,,,,,,,,,,,,,,,,,,,,,,,,,,,,,,,,,,,,,,,,,,,,,,,,,,,,,,,,,,,,,,,,,,,10,Female,43,001,2021_Mar_09_2103,cal_abstract,2020.2.4,60.00275940576783,
,Fix2,stimuli/Smell/35.jpg,right,,,,,,,,,,,0,16,16,16,,,,,,,,,,,,,,,,,,,,,,,,,,,,,,,,,,,196.4526626070001,None,196.4526626070001,None,right,1,0.9951380720012821,196.4526626070001,None,1,197.46905991699896,None,,,,,,,,,,,,,,,,,,,,,,,,,,,,,,,,,,,,,,,,,,,,,,,,,,,,,,,,,,,,,,,,,,,10,Female,43,001,2021_Mar_09_2103,cal_abstract,2020.2.4,60.00275940576783,
,Cond,stimuli/Healthy/39.jpg,left,,,,,,,,,,,0,17,17,17,,,,,,,,,,,,,,,,,,,,,,,,,,,,,,,,,,,198.2360307739982,None,198.2360307739982,None,left,1,1.2076557750006032,198.2360307739982,None,1,199.4691770669997,None,,,,,,,,,,,,,,,,,,,,,,,,,,,,,,,,,,,,,,,,,,,,,,,,,,,,,,,,,,,,,,,,,,,10,Female,43,001,2021_Mar_09_2103,cal_abstract,2020.2.4,60.00275940576783,
,Fix1,stimuli/Soft/14.jpg,left,,,,,,,,,,,0,18,18,18,,,,,,,,,,,,,,,,,,,,,,,,,,,,,,,,,,,200.23631652699987,None,200.23631652699987,None,left,1,1.7305145599966636,200.23631652699987,None,1,201.98460985400015,None,,,,,,,,,,,,,,,,,,,,,,,,,,,,,,,,,,,,,,,,,,,,,,,,,,,,,,,,,,,,,,,,,,,10,Female,43,001,2021_Mar_09_2103,cal_abstract,2020.2.4,60.00275940576783,
,Cond,stimuli/Healthy/10.jpg,right,,,,,,,,,,,0,19,19,19,,,,,,,,,,,,,,,,,,,,,,,,,,,,,,,,,,,202.75270476199876,None,202.75270476199876,None,left,0,0.9527769899978011,202.75270476199876,None,0,203.7360738339994,None,,,,,,,,,,,,,,,,,,,,,,,,,,,,,,,,,,,,,,,,,,,,,,,,,,,,,,,,,,,,,,,,,,,10,Female,43,001,2021_Mar_09_2103,cal_abstract,2020.2.4,60.00275940576783,
,Fix2,stimuli/Smell/54.jpg,right,,,,,,,,,,,0,20,20,20,,,,,,,,,,,,,,,,,,,,,,,,,,,,,,,,,,,204.50310442699993,None,204.50310442699993,None,right,1,6.091553992999252,204.50310442699993,None,1,210.61992307699984,None,,,,,,,,,,,,,,,,,,,,,,,,,,,,,,,,,,,,,,,,,,,,,,,,,,,,,,,,,,,,,,,,,,,10,Female,43,001,2021_Mar_09_2103,cal_abstract,2020.2.4,60.00275940576783,
,Fix1,stimuli/Soft/12.jpg,left,,,,,,,,,,,0,21,21,21,,,,,,,,,,,,,,,,,,,,,,,,,,,,,,,,,,,211.38703638899824,None,211.38703638899824,None,left,1,3.6989230469989707,211.38703638899824,None,1,215.10390978699797,None,,,,,,,,,,,,,,,,,,,,,,,,,,,,,,,,,,,,,,,,,,,,,,,,,,,,,,,,,,,,,,,,,,,10,Female,43,001,2021_Mar_09_2103,cal_abstract,2020.2.4,60.00275940576783,
,Fix1,stimuli/Soft/37.jpg,left,,,,,,,,,,,0,22,22,22,,,,,,,,,,,,,,,,,,,,,,,,,,,,,,,,,,,215.8706733689978,None,215.8706733689978,None,right,0,1.8435440600005677,215.8706733689978,None,0,217.73699760199816,None,,,,,,,,,,,,,,,,,,,,,,,,,,,,,,,,,,,,,,,,,,,,,,,,,,,,,,,,,,,,,,,,,,,10,Female,43,001,2021_Mar_09_2103,cal_abstract,2020.2.4,60.00275940576783,
,Fix2,stimuli/Smell/18.jpg,right,,,,,,,,,,,0,23,23,23,,,,,,,,,,,,,,,,,,,,,,,,,,,,,,,,,,,218.51938046500072,None,218.51938046500072,None,right,1,0.7806133389967727,218.51938046500072,None,1,219.32063637399915,None,,,,,,,,,,,,,,,,,,,,,,,,,,,,,,,,,,,,,,,,,,,,,,,,,,,,,,,,,,,,,,,,,,,10,Female,43,001,2021_Mar_09_2103,cal_abstract,2020.2.4,60.00275940576783,
,Cond,stimuli/Healthy/16.jpg,left,,,,,,,,,,,0,24,24,24,,,,,,,,,,,,,,,,,,,,,,,,,,,,,,,,,,,220.08728482699735,None,220.08728482699735,None,left,1,4.514532835000864,220.08728482699735,None,1,224.62079311200068,None,,,,,,,,,,,,,,,,,,,,,,,,,,,,,,,,,,,,,,,,,,,,,,,,,,,,,,,,,,,,,,,,,,,10,Female,43,001,2021_Mar_09_2103,cal_abstract,2020.2.4,60.00275940576783,
,Fix1,stimuli/Soft/7.jpg,left,,,,,,,,,,,0,25,25,25,,,,,,,,,,,,,,,,,,,,,,,,,,,,,,,,,,,225.38681380900016,None,225.38681380900016,None,left,1,5.501741797001159,225.38681380900016,None,1,230.92134748699755,None,,,,,,,,,,,,,,,,,,,,,,,,,,,,,,,,,,,,,,,,,,,,,,,,,,,,,,,,,,,,,,,,,,,10,Female,43,001,2021_Mar_09_2103,cal_abstract,2020.2.4,60.00275940576783,
,Fix1,stimuli/Soft/44.jpg,left,,,,,,,,,,,0,26,26,26,,,,,,,,,,,,,,,,,,,,,,,,,,,,,,,,,,,231.6881134289979,None,231.6881134289979,None,left,1,1.2518834969996533,231.6881134289979,None,1,232.97151753700018,None,,,,,,,,,,,,,,,,,,,,,,,,,,,,,,,,,,,,,,,,,,,,,,,,,,,,,,,,,,,,,,,,,,,10,Female,43,001,2021_Mar_09_2103,cal_abstract,2020.2.4,60.00275940576783,
,Fix2,stimuli/Smell/57.jpg,right,,,,,,,,,,,0,27,27,27,,,,,,,,,,,,,,,,,,,,,,,,,,,,,,,,,,,233.7382697619978,None,233.7382697619978,None,right,1,3.177036216999113,233.7382697619978,None,1,236.9378476469974,None,,,,,,,,,,,,,,,,,,,,,,,,,,,,,,,,,,,,,,,,,,,,,,,,,,,,,,,,,,,,,,,,,,,10,Female,43,001,2021_Mar_09_2103,cal_abstract,2020.2.4,60.00275940576783,
,Fix1,stimuli/Soft/29.jpg,left,,,,,,,,,,,0,28,28,28,,,,,,,,,,,,,,,,,,,,,,,,,,,,,,,,,,,237.72214508699835,None,237.72214508699835,None,left,1,1.922880272999464,237.72214508699835,None,1,239.67095286199765,None,,,,,,,,,,,,,,,,,,,,,,,,,,,,,,,,,,,,,,,,,,,,,,,,,,,,,,,,,,,,,,,,,,,10,Female,43,001,2021_Mar_09_2103,cal_abstract,2020.2.4,60.00275940576783,
,Fix2,stimuli/Smell/50.jpg,right,,,,,,,,,,,0,29,29,29,,,,,,,,,,,,,,,,,,,,,,,,,,,,,,,,,,,240.43883460199868,None,240.43883460199868,None,right,1,0.9430468549981015,240.43883460199868,None,1,241.40535844899932,None,,,,,,,,,,,,,,,,,,,,,,,,,,,,,,,,,,,,,,,,,,,,,,,,,,,,,,,,,,,,,,,,,,,10,Female,43,001,2021_Mar_09_2103,cal_abstract,2020.2.4,60.00275940576783,
,Fix1,stimuli/Soft/41.jpg,left,,,,,,,,,,,0,30,30,30,,,,,,,,,,,,,,,,,,,,,,,,,,,,,,,,,,,242.17234726699826,None,242.17234726699826,None,left,1,1.0204821750012343,242.17234726699826,None,1,243.22214531200007,None,,,,,,,,,,,,,,,,,,,,,,,,,,,,,,,,,,,,,,,,,,,,,,,,,,,,,,,,,,,,,,,,,,,10,Female,43,001,2021_Mar_09_2103,cal_abstract,2020.2.4,60.00275940576783,
,Fix2,stimuli/Smell/58.jpg,right,,,,,,,,,,,0,31,31,31,,,,,,,,,,,,,,,,,,,,,,,,,,,,,,,,,,,243.9889725139983,None,243.9889725139983,None,right,1,0.7626766870016581,243.9889725139983,None,1,244.7720301720001,None,,,,,,,,,,,,,,,,,,,,,,,,,,,,,,,,,,,,,,,,,,,,,,,,,,,,,,,,,,,,,,,,,,,10,Female,43,001,2021_Mar_09_2103,cal_abstract,2020.2.4,60.00275940576783,
,Fix2,stimuli/Smell/56.jpg,right,,,,,,,,,,,0,32,32,32,,,,,,,,,,,,,,,,,,,,,,,,,,,,,,,,,,,245.53946424199967,None,245.53946424199967,None,right,1,1.516922720002185,245.53946424199967,None,1,247.08905295899967,None,,,,,,,,,,,,,,,,,,,,,,,,,,,,,,,,,,,,,,,,,,,,,,,,,,,,,,,,,,,,,,,,,,,10,Female,43,001,2021_Mar_09_2103,cal_abstract,2020.2.4,60.00275940576783,
,Fix1,stimuli/Soft/13.jpg,left,,,,,,,,,,,0,33,33,33,,,,,,,,,,,,,,,,,,,,,,,,,,,,,,,,,,,247.8723072239991,None,247.8723072239991,None,left,1,6.518977537001774,247.8723072239991,None,1,254.42297306899854,None,,,,,,,,,,,,,,,,,,,,,,,,,,,,,,,,,,,,,,,,,,,,,,,,,,,,,,,,,,,,,,,,,,,10,Female,43,001,2021_Mar_09_2103,cal_abstract,2020.2.4,60.00275940576783,
,Cond,stimuli/Healthy/35.jpg,right,,,,,,,,,,,0,34,34,34,,,,,,,,,,,,,,,,,,,,,,,,,,,,,,,,,,,255.18970746899868,None,255.18970746899868,None,left,0,2.7002786680022837,255.18970746899868,None,0,257.92397059200084,None,,,,,,,,,,,,,,,,,,,,,,,,,,,,,,,,,,,,,,,,,,,,,,,,,,,,,,,,,,,,,,,,,,,10,Female,43,001,2021_Mar_09_2103,cal_abstract,2020.2.4,60.00275940576783,
,Cond,stimuli/Healthy/58.jpg,left,,,,,,,,,,,0,35,35,35,,,,,,,,,,,,,,,,,,,,,,,,,,,,,,,,,,,258.690037078999,None,258.690037078999,None,left,1,4.600865483000234,258.690037078999,None,1,263.3232003169978,None,,,,,,,,,,,,,,,,,,,,,,,,,,,,,,,,,,,,,,,,,,,,,,,,,,,,,,,,,,,,,,,,,,,10,Female,43,001,2021_Mar_09_2103,cal_abstract,2020.2.4,60.00275940576783,
,Fix2,stimuli/Smell/6.jpg,right,,,,,,,,,,,0,36,36,36,,,,,,,,,,,,,,,,,,,,,,,,,,,,,,,,,,,264.09015340199767,None,264.09015340199767,None,right,1,0.7429067470002337,264.09015340199767,None,1,264.85737845900076,None,,,,,,,,,,,,,,,,,,,,,,,,,,,,,,,,,,,,,,,,,,,,,,,,,,,,,,,,,,,,,,,,,,,10,Female,43,001,2021_Mar_09_2103,cal_abstract,2020.2.4,60.00275940576783,
,Cond,stimuli/Healthy/60.jpg,left,,,,,,,,,,,0,37,37,37,,,,,,,,,,,,,,,,,,,,,,,,,,,,,,,,,,,265.62390900699756,None,265.62390900699756,None,left,1,3.021212600000581,265.62390900699756,None,1,268.67352748399935,None,,,,,,,,,,,,,,,,,,,,,,,,,,,,,,,,,,,,,,,,,,,,,,,,,,,,,,,,,,,,,,,,,,,10,Female,43,001,2021_Mar_09_2103,cal_abstract,2020.2.4,60.00275940576783,
,Fix1,stimuli/Soft/46.jpg,left,,,,,,,,,,,0,38,38,38,,,,,,,,,,,,,,,,,,,,,,,,,,,,,,,,,,,269.440842254,None,269.440842254,None,left,1,5.7470915039994,269.440842254,None,1,275.20654297299916,None,,,,,,,,,,,,,,,,,,,,,,,,,,,,,,,,,,,,,,,,,,,,,,,,,,,,,,,,,,,,,,,,,,,10,Female,43,001,2021_Mar_09_2103,cal_abstract,2020.2.4,60.00275940576783,
,Fix2,stimuli/Smell/48.jpg,right,,,,,,,,,,,0,39,39,39,,,,,,,,,,,,,,,,,,,,,,,,,,,,,,,,,,,275.97417977700024,None,275.97417977700024,None,right,1,1.4313777669995034,275.97417977700024,None,1,277.42319049199796,None,,,,,,,,,,,,,,,,,,,,,,,,,,,,,,,,,,,,,,,,,,,,,,,,,,,,,,,,,,,,,,,,,,,10,Female,43,001,2021_Mar_09_2103,cal_abstract,2020.2.4,60.00275940576783,
,Cond,stimuli/Healthy/34.jpg,left,,,,,,,,,,,0,40,40,40,,,,,,,,,,,,,,,,,,,,,,,,,,,,,,,,,,,278.1911042469983,None,278.1911042469983,None,left,1,1.189359730000433,278.1911042469983,None,1,279.40779602899784,None,,,,,,,,,,,,,,,,,,,,,,,,,,,,,,,,,,,,,,,,,,,,,,,,,,,,,,,,,,,,,,,,,,,10,Female,43,001,2021_Mar_09_2103,cal_abstract,2020.2.4,60.00275940576783,
,Fix2,stimuli/Smell/34.jpg,right,,,,,,,,,,,0,41,41,41,,,,,,,,,,,,,,,,,,,,,,,,,,,,,,,,,,,280.17434946199864,None,280.17434946199864,None,right,1,0.8468807399985963,280.17434946199864,None,1,281.041423527,None,,,,,,,,,,,,,,,,,,,,,,,,,,,,,,,,,,,,,,,,,,,,,,,,,,,,,,,,,,,,,,,,,,,10,Female,43,001,2021_Mar_09_2103,cal_abstract,2020.2.4,60.00275940576783,
,Fix2,stimuli/Smell/29.jpg,right,,,,,,,,,,,0,42,42,42,,,,,,,,,,,,,,,,,,,,,,,,,,,,,,,,,,,281.80822557699867,None,281.80822557699867,None,right,1,2.768690314002015,281.80822557699867,None,1,284.6086838119991,None,,,,,,,,,,,,,,,,,,,,,,,,,,,,,,,,,,,,,,,,,,,,,,,,,,,,,,,,,,,,,,,,,,,10,Female,43,001,2021_Mar_09_2103,cal_abstract,2020.2.4,60.00275940576783,
,Cond,stimuli/Healthy/67.jpg,left,,,,,,,,,,,0,43,43,43,,,,,,,,,,,,,,,,,,,,,,,,,,,,,,,,,,,285.3749636089997,None,285.3749636089997,None,left,1,1.327310591997957,285.3749636089997,None,1,286.725311962,None,,,,,,,,,,,,,,,,,,,,,,,,,,,,,,,,,,,,,,,,,,,,,,,,,,,,,,,,,,,,,,,,,,,10,Female,43,001,2021_Mar_09_2103,cal_abstract,2020.2.4,60.00275940576783,
,Fix2,stimuli/Smell/31.jpg,right,,,,,,,,,,,0,44,44,44,,,,,,,,,,,,,,,,,,,,,,,,,,,,,,,,,,,287.4920905020008,None,287.4920905020008,None,right,1,1.1099027400014165,287.4920905020008,None,1,288.62542892700003,None,,,,,,,,,,,,,,,,,,,,,,,,,,,,,,,,,,,,,,,,,,,,,,,,,,,,,,,,,,,,,,,,,,,10,Female,43,001,2021_Mar_09_2103,cal_abstract,2020.2.4,60.00275940576783,
,Fix1,stimuli/Soft/4.jpg,left,,,,,,,,,,,0,45,45,45,,,,,,,,,,,,,,,,,,,,,,,,,,,,,,,,,,,289.39203383199856,None,289.39203383199856,None,left,1,1.0508463570004096,289.39203383199856,None,1,290.475437219,None,,,,,,,,,,,,,,,,,,,,,,,,,,,,,,,,,,,,,,,,,,,,,,,,,,,,,,,,,,,,,,,,,,,10,Female,43,001,2021_Mar_09_2103,cal_abstract,2020.2.4,60.00275940576783,
,Fix1,stimuli/Soft/22.jpg,left,,,,,,,,,,,0,46,46,46,,,,,,,,,,,,,,,,,,,,,,,,,,,,,,,,,,,291.2422612169976,None,291.2422612169976,None,left,1,1.589524455001083,291.2422612169976,None,1,292.8589974789975,None,,,,,,,,,,,,,,,,,,,,,,,,,,,,,,,,,,,,,,,,,,,,,,,,,,,,,,,,,,,,,,,,,,,10,Female,43,001,2021_Mar_09_2103,cal_abstract,2020.2.4,60.00275940576783,
,Fix1,stimuli/Soft/55.jpg,left,,,,,,,,,,,0,47,47,47,,,,,,,,,,,,,,,,,,,,,,,,,,,,,,,,,,,293.62576901399734,None,293.62576901399734,None,left,1,0.8459534450012143,293.62576901399734,None,1,294.49226173900024,None,,,,,,,,,,,,,,,,,,,,,,,,,,,,,,,,,,,,,,,,,,,,,,,,,,,,,,,,,,,,,,,,,,,10,Female,43,001,2021_Mar_09_2103,cal_abstract,2020.2.4,60.00275940576783,
,Cond,stimuli/Healthy/7.jpg,right,,,,,,,,,,,0,48,48,48,,,,,,,,,,,,,,,,,,,,,,,,,,,,,,,,,,,295.25915201399766,None,295.25915201399766,None,left,0,2.3734232819988392,295.25915201399766,None,0,297.6589290720003,None,,,,,,,,,,,,,,,,,,,,,,,,,,,,,,,,,,,,,,,,,,,,,,,,,,,,,,,,,,,,,,,,,,,10,Female,43,001,2021_Mar_09_2103,cal_abstract,2020.2.4,60.00275940576783,
,Cond,stimuli/Healthy/38.jpg,left,,,,,,,,,,,0,49,49,49,,,,,,,,,,,,,,,,,,,,,,,,,,,,,,,,,,,298.42606923199855,None,298.42606923199855,None,left,1,1.0704461380009889,298.42606923199855,None,1,299.5258041039997,None,,,,,,,,,,,,,,,,,,,,,,,,,,,,,,,,,,,,,,,,,,,,,,,,,,,,,,,,,,,,,,,,,,,10,Female,43,001,2021_Mar_09_2103,cal_abstract,2020.2.4,60.00275940576783,
,Cond,stimuli/Healthy/41.jpg,right,,,,,,,,,,,0,50,50,50,,,,,,,,,,,,,,,,,,,,,,,,,,,,,,,,,,,300.2927522589998,None,300.2927522589998,None,left,0,3.5460372650013596,300.2927522589998,None,0,303.8594258539997,None,,,,,,,,,,,,,,,,,,,,,,,,,,,,,,,,,,,,,,,,,,,,,,,,,,,,,,,,,,,,,,,,,,,10,Female,43,001,2021_Mar_09_2103,cal_abstract,2020.2.4,60.00275940576783,
,Fix1,stimuli/Soft/20.JPG,left,,,,,,,,,,,0,51,51,51,,,,,,,,,,,,,,,,,,,,,,,,,,,,,,,,,,,304.62651550900046,None,304.62651550900046,None,left,1,1.002470989998983,304.62651550900046,None,1,305.6598252219992,None,,,,,,,,,,,,,,,,,,,,,,,,,,,,,,,,,,,,,,,,,,,,,,,,,,,,,,,,,,,,,,,,,,,10,Female,43,001,2021_Mar_09_2103,cal_abstract,2020.2.4,60.00275940576783,
,Cond,stimuli/Healthy/20.jpg,right,,,,,,,,,,,0,52,52,52,,,,,,,,,,,,,,,,,,,,,,,,,,,,,,,,,,,306.4266745419991,None,306.4266745419991,None,left,0,2.028134485000919,306.4266745419991,None,0,308.4766320739982,None,,,,,,,,,,,,,,,,,,,,,,,,,,,,,,,,,,,,,,,,,,,,,,,,,,,,,,,,,,,,,,,,,,,10,Female,43,001,2021_Mar_09_2103,cal_abstract,2020.2.4,60.00275940576783,
,Fix2,stimuli/Smell/30.jpg,right,,,,,,,,,,,0,53,53,53,,,,,,,,,,,,,,,,,,,,,,,,,,,,,,,,,,,309.2435394919994,None,309.2435394919994,None,right,1,1.9330794220004464,309.2435394919994,None,1,311.1935081419979,None,,,,,,,,,,,,,,,,,,,,,,,,,,,,,,,,,,,,,,,,,,,,,,,,,,,,,,,,,,,,,,,,,,,10,Female,43,001,2021_Mar_09_2103,cal_abstract,2020.2.4,60.00275940576783,
,Fix2,stimuli/Smell/16.jpg,right,,,,,,,,,,,0,54,54,54,,,,,,,,,,,,,,,,,,,,,,,,,,,,,,,,,,,311.9603836219976,None,311.9603836219976,None,right,1,0.7421514880006725,311.9603836219976,None,1,312.72709951199795,None,,,,,,,,,,,,,,,,,,,,,,,,,,,,,,,,,,,,,,,,,,,,,,,,,,,,,,,,,,,,,,,,,,,10,Female,43,001,2021_Mar_09_2103,cal_abstract,2020.2.4,60.00275940576783,
,Fix1,stimuli/Soft/57.jpg,left,,,,,,,,,,,0,55,55,55,,,,,,,,,,,,,,,,,,,,,,,,,,,,,,,,,,,313.49364470399814,None,313.49364470399814,None,left,1,0.8219309129999601,313.49364470399814,None,1,314.3437930170003,None,,,,,,,,,,,,,,,,,,,,,,,,,,,,,,,,,,,,,,,,,,,,,,,,,,,,,,,,,,,,,,,,,,,10,Female,43,001,2021_Mar_09_2103,cal_abstract,2020.2.4,60.00275940576783,
,Fix1,stimuli/Soft/50.jpg,left,,,,,,,,,,,0,56,56,56,,,,,,,,,,,,,,,,,,,,,,,,,,,,,,,,,,,315.110722677,None,315.110722677,None,left,1,1.3454123499977868,315.110722677,None,1,316.47718853900005,None,,,,,,,,,,,,,,,,,,,,,,,,,,,,,,,,,,,,,,,,,,,,,,,,,,,,,,,,,,,,,,,,,,,10,Female,43,001,2021_Mar_09_2103,cal_abstract,2020.2.4,60.00275940576783,
,Fix1,stimuli/Soft/25.jpg,left,,,,,,,,,,,0,57,57,57,,,,,,,,,,,,,,,,,,,,,,,,,,,,,,,,,,,317.2608072969997,None,317.2608072969997,None,left,1,0.7423883899973589,317.2608072969997,None,1,318.02734605399746,None,,,,,,,,,,,,,,,,,,,,,,,,,,,,,,,,,,,,,,,,,,,,,,,,,,,,,,,,,,,,,,,,,,,10,Female,43,001,2021_Mar_09_2103,cal_abstract,2020.2.4,60.00275940576783,
,Fix1,stimuli/Soft/3.jpg,left,,,,,,,,,,,0,58,58,58,,,,,,,,,,,,,,,,,,,,,,,,,,,,,,,,,,,318.79420190199744,None,318.79420190199744,None,right,0,1.5258414000018092,318.79420190199744,None,0,320.3441516269995,None,,,,,,,,,,,,,,,,,,,,,,,,,,,,,,,,,,,,,,,,,,,,,,,,,,,,,,,,,,,,,,,,,,,10,Female,43,001,2021_Mar_09_2103,cal_abstract,2020.2.4,60.00275940576783,
,Cond,stimuli/Healthy/13.jpg,right,,,,,,,,,,,0,59,59,59,,,,,,,,,,,,,,,,,,,,,,,,,,,,,,,,,,,321.1097209590007,None,321.1097209590007,None,left,0,5.255543999999645,321.1097209590007,None,0,326.3939242939996,None,,,,,,,,,,,,,,,,,,,,,,,,,,,,,,,,,,,,,,,,,,,,,,,,,,,,,,,,,,,,,,,,,,,10,Female,43,001,2021_Mar_09_2103,cal_abstract,2020.2.4,60.00275940576783,
,Cond,stimuli/Healthy/63.jpg,left,,,,,,,,,,,0,60,60,60,,,,,,,,,,,,,,,,,,,,,,,,,,,,,,,,,,,327.16137871200044,None,327.16137871200044,None,left,1,3.2972991400019964,327.16137871200044,None,1,330.47830751400033,None,,,,,,,,,,,,,,,,,,,,,,,,,,,,,,,,,,,,,,,,,,,,,,,,,,,,,,,,,,,,,,,,,,,10,Female,43,001,2021_Mar_09_2103,cal_abstract,2020.2.4,60.00275940576783,
,Cond,stimuli/Healthy/23.jpg,right,,,,,,,,,,,0,61,61,61,,,,,,,,,,,,,,,,,,,,,,,,,,,,,,,,,,,331.24501456899816,None,331.24501456899816,None,right,1,3.0660743530024774,331.24501456899816,None,1,334.32870132699827,None,,,,,,,,,,,,,,,,,,,,,,,,,,,,,,,,,,,,,,,,,,,,,,,,,,,,,,,,,,,,,,,,,,,10,Female,43,001,2021_Mar_09_2103,cal_abstract,2020.2.4,60.00275940576783,
,Fix1,stimuli/Soft/1.jpg,left,,,,,,,,,,,0,62,62,62,,,,,,,,,,,,,,,,,,,,,,,,,,,,,,,,,,,335.09800614900087,None,335.09800614900087,None,left,1,0.8450320500014641,335.09800614900087,None,1,335.96200287899774,None,,,,,,,,,,,,,,,,,,,,,,,,,,,,,,,,,,,,,,,,,,,,,,,,,,,,,,,,,,,,,,,,,,,10,Female,43,001,2021_Mar_09_2103,cal_abstract,2020.2.4,60.00275940576783,
,Cond,stimuli/Healthy/59.jpg,right,,,,,,,,,,,0,63,63,63,,,,,,,,,,,,,,,,,,,,,,,,,,,,,,,,,,,336.7286977469994,None,336.7286977469994,None,right,1,0.9541606029997638,336.7286977469994,None,1,337.7119559139974,None,,,,,,,,,,,,,,,,,,,,,,,,,,,,,,,,,,,,,,,,,,,,,,,,,,,,,,,,,,,,,,,,,,,10,Female,43,001,2021_Mar_09_2103,cal_abstract,2020.2.4,60.00275940576783,
,Cond,stimuli/Healthy/1.jpg,left,,,,,,,,,,,0,64,64,64,,,,,,,,,,,,,,,,,,,,,,,,,,,,,,,,,,,338.4788235119995,None,338.4788235119995,None,right,0,3.3131851329999336,338.4788235119995,None,0,341.8120298369977,None,,,,,,,,,,,,,,,,,,,,,,,,,,,,,,,,,,,,,,,,,,,,,,,,,,,,,,,,,,,,,,,,,,,10,Female,43,001,2021_Mar_09_2103,cal_abstract,2020.2.4,60.00275940576783,
,Fix2,stimuli/Smell/3.jpg,right,,,,,,,,,,,0,65,65,65,,,,,,,,,,,,,,,,,,,,,,,,,,,,,,,,,,,342.579093428998,None,342.579093428998,None,right,1,0.9029504300015105,342.579093428998,None,1,343.5124250939989,None,,,,,,,,,,,,,,,,,,,,,,,,,,,,,,,,,,,,,,,,,,,,,,,,,,,,,,,,,,,,,,,,,,,10,Female,43,001,2021_Mar_09_2103,cal_abstract,2020.2.4,60.00275940576783,
,Fix1,stimuli/Soft/51.jpg,left,,,,,,,,,,,0,66,66,66,,,,,,,,,,,,,,,,,,,,,,,,,,,,,,,,,,,344.2956751719976,None,344.2956751719976,None,left,1,0.8471394299995154,344.2956751719976,None,1,345.1624099969995,None,,,,,,,,,,,,,,,,,,,,,,,,,,,,,,,,,,,,,,,,,,,,,,,,,,,,,,,,,,,,,,,,,,,10,Female,43,001,2021_Mar_09_2103,cal_abstract,2020.2.4,60.00275940576783,
,Fix1,stimuli/Soft/10.jpg,left,,,,,,,,,,,0,67,67,67,,,,,,,,,,,,,,,,,,,,,,,,,,,,,,,,,,,345.92960369700086,None,345.92960369700086,None,left,1,1.4591264270020474,345.92960369700086,None,1,347.41264789699926,None,,,,,,,,,,,,,,,,,,,,,,,,,,,,,,,,,,,,,,,,,,,,,,,,,,,,,,,,,,,,,,,,,,,10,Female,43,001,2021_Mar_09_2103,cal_abstract,2020.2.4,60.00275940576783,
,Fix1,stimuli/Soft/0.jpg,left,,,,,,,,,,,0,68,68,68,,,,,,,,,,,,,,,,,,,,,,,,,,,,,,,,,,,348.1795522939974,None,348.1795522939974,None,left,1,0.8831154270010302,348.1795522939974,None,1,349.0794868470002,None,,,,,,,,,,,,,,,,,,,,,,,,,,,,,,,,,,,,,,,,,,,,,,,,,,,,,,,,,,,,,,,,,,,10,Female,43,001,2021_Mar_09_2103,cal_abstract,2020.2.4,60.00275940576783,
,Fix1,stimuli/Soft/54.jpg,left,,,,,,,,,,,0,69,69,69,,,,,,,,,,,,,,,,,,,,,,,,,,,,,,,,,,,349.8462615419994,None,349.8462615419994,None,left,1,5.646077039997181,349.8462615419994,None,1,355.5133186540006,None,,,,,,,,,,,,,,,,,,,,,,,,,,,,,,,,,,,,,,,,,,,,,,,,,,,,,,,,,,,,,,,,,,,10,Female,43,001,2021_Mar_09_2103,cal_abstract,2020.2.4,60.00275940576783,
,Fix2,stimuli/Smell/24.jpg,right,,,,,,,,,,,0,70,70,70,,,,,,,,,,,,,,,,,,,,,,,,,,,,,,,,,,,356.27926389300046,None,356.27926389300046,None,right,1,6.019207853998523,356.27926389300046,None,1,362.3304812540009,None,,,,,,,,,,,,,,,,,,,,,,,,,,,,,,,,,,,,,,,,,,,,,,,,,,,,,,,,,,,,,,,,,,,10,Female,43,001,2021_Mar_09_2103,cal_abstract,2020.2.4,60.00275940576783,
,Fix1,stimuli/Soft/48.jpg,left,,,,,,,,,,,0,71,71,71,,,,,,,,,,,,,,,,,,,,,,,,,,,,,,,,,,,363.0974955169986,None,363.0974955169986,None,left,1,1.2927667800031486,363.0974955169986,None,1,364.41395510899747,None,,,,,,,,,,,,,,,,,,,,,,,,,,,,,,,,,,,,,,,,,,,,,,,,,,,,,,,,,,,,,,,,,,,10,Female,43,001,2021_Mar_09_2103,cal_abstract,2020.2.4,60.00275940576783,
,Fix2,stimuli/Smell/7.jpg,right,,,,,,,,,,,0,72,72,72,,,,,,,,,,,,,,,,,,,,,,,,,,,,,,,,,,,365.1803395620009,None,365.1803395620009,None,right,1,4.18028540999876,365.1803395620009,None,1,369.3805706469975,None,,,,,,,,,,,,,,,,,,,,,,,,,,,,,,,,,,,,,,,,,,,,,,,,,,,,,,,,,,,,,,,,,,,10,Female,43,001,2021_Mar_09_2103,cal_abstract,2020.2.4,60.00275940576783,
,Fix2,stimuli/Smell/32.jpg,right,,,,,,,,,,,0,73,73,73,,,,,,,,,,,,,,,,,,,,,,,,,,,,,,,,,,,370.1478392789977,None,370.1478392789977,None,right,1,1.0357975279985112,370.1478392789977,None,1,371.2143513789997,None,,,,,,,,,,,,,,,,,,,,,,,,,,,,,,,,,,,,,,,,,,,,,,,,,,,,,,,,,,,,,,,,,,,10,Female,43,001,2021_Mar_09_2103,cal_abstract,2020.2.4,60.00275940576783,
,Fix1,stimuli/Soft/43.jpg,left,,,,,,,,,,,0,74,74,74,,,,,,,,,,,,,,,,,,,,,,,,,,,,,,,,,,,371.9824605239992,None,371.9824605239992,None,left,1,0.8168943179989583,371.9824605239992,None,1,372.8313274690008,None,,,,,,,,,,,,,,,,,,,,,,,,,,,,,,,,,,,,,,,,,,,,,,,,,,,,,,,,,,,,,,,,,,,10,Female,43,001,2021_Mar_09_2103,cal_abstract,2020.2.4,60.00275940576783,
,Fix1,stimuli/Soft/40.jpg,left,,,,,,,,,,,0,75,75,75,,,,,,,,,,,,,,,,,,,,,,,,,,,,,,,,,,,373.59794167899963,None,373.59794167899963,None,left,1,0.9824637769997935,373.59794167899963,None,1,374.5979339439982,None,,,,,,,,,,,,,,,,,,,,,,,,,,,,,,,,,,,,,,,,,,,,,,,,,,,,,,,,,,,,,,,,,,,10,Female,43,001,2021_Mar_09_2103,cal_abstract,2020.2.4,60.00275940576783,
,Fix2,stimuli/Smell/59.jpg,right,,,,,,,,,,,0,76,76,76,,,,,,,,,,,,,,,,,,,,,,,,,,,,,,,,,,,375.36473266399844,None,375.36473266399844,None,right,1,0.8724090399991837,375.36473266399844,None,1,376.2646294419974,None,,,,,,,,,,,,,,,,,,,,,,,,,,,,,,,,,,,,,,,,,,,,,,,,,,,,,,,,,,,,,,,,,,,10,Female,43,001,2021_Mar_09_2103,cal_abstract,2020.2.4,60.00275940576783,
,Fix1,stimuli/Soft/35.jpg,left,,,,,,,,,,,0,77,77,77,,,,,,,,,,,,,,,,,,,,,,,,,,,,,,,,,,,377.03163542900074,None,377.03163542900074,None,left,1,0.9173407849993964,377.03163542900074,None,1,377.9813243770004,None,,,,,,,,,,,,,,,,,,,,,,,,,,,,,,,,,,,,,,,,,,,,,,,,,,,,,,,,,,,,,,,,,,,10,Female,43,001,2021_Mar_09_2103,cal_abstract,2020.2.4,60.00275940576783,
,Cond,stimuli/Healthy/47.jpg,right,,,,,,,,,,,0,78,78,78,,,,,,,,,,,,,,,,,,,,,,,,,,,,,,,,,,,378.74828630900083,None,378.74828630900083,None,left,0,0.8857421979992068,378.74828630900083,None,0,379.6649871619993,None,,,,,,,,,,,,,,,,,,,,,,,,,,,,,,,,,,,,,,,,,,,,,,,,,,,,,,,,,,,,,,,,,,,10,Female,43,001,2021_Mar_09_2103,cal_abstract,2020.2.4,60.00275940576783,
,Fix1,stimuli/Soft/34.jpg,left,,,,,,,,,,,0,79,79,79,,,,,,,,,,,,,,,,,,,,,,,,,,,,,,,,,,,380.4317095389997,None,380.4317095389997,None,left,1,1.912180677998549,380.4317095389997,None,1,382.36470451399873,None,,,,,,,,,,,,,,,,,,,,,,,,,,,,,,,,,,,,,,,,,,,,,,,,,,,,,,,,,,,,,,,,,,,10,Female,43,001,2021_Mar_09_2103,cal_abstract,2020.2.4,60.00275940576783,
,Cond,stimuli/Healthy/61.jpg,right,,,,,,,,,,,0,80,80,80,,,,,,,,,,,,,,,,,,,,,,,,,,,,,,,,,,,383.13168773399957,None,383.13168773399957,None,left,0,3.5252649180001754,383.13168773399957,None,0,386.6820076490003,None,,,,,,,,,,,,,,,,,,,,,,,,,,,,,,,,,,,,,,,,,,,,,,,,,,,,,,,,,,,,,,,,,,,10,Female,43,001,2021_Mar_09_2103,cal_abstract,2020.2.4,60.00275940576783,
,Fix2,stimuli/Smell/33.jpg,right,,,,,,,,,,,0,81,81,81,,,,,,,,,,,,,,,,,,,,,,,,,,,,,,,,,,,387.44914263399914,None,387.44914263399914,None,right,1,1.487132254998869,387.44914263399914,None,1,388.96544825199817,None,,,,,,,,,,,,,,,,,,,,,,,,,,,,,,,,,,,,,,,,,,,,,,,,,,,,,,,,,,,,,,,,,,,10,Female,43,001,2021_Mar_09_2103,cal_abstract,2020.2.4,60.00275940576783,
,Fix2,stimuli/Smell/45.jpg,right,,,,,,,,,,,0,82,82,82,,,,,,,,,,,,,,,,,,,,,,,,,,,,,,,,,,,389.7326093019983,None,389.7326093019983,None,right,1,1.0870374530022673,389.7326093019983,None,1,390.84904960199856,None,,,,,,,,,,,,,,,,,,,,,,,,,,,,,,,,,,,,,,,,,,,,,,,,,,,,,,,,,,,,,,,,,,,10,Female,43,001,2021_Mar_09_2103,cal_abstract,2020.2.4,60.00275940576783,
,Cond,stimuli/Healthy/0.jpg,left,,,,,,,,,,,0,83,83,83,,,,,,,,,,,,,,,,,,,,,,,,,,,,,,,,,,,391.6161020219988,None,391.6161020219988,None,left,1,5.644506220000039,391.6161020219988,None,1,397.28227429699837,None,,,,,,,,,,,,,,,,,,,,,,,,,,,,,,,,,,,,,,,,,,,,,,,,,,,,,,,,,,,,,,,,,,,10,Female,43,001,2021_Mar_09_2103,cal_abstract,2020.2.4,60.00275940576783,
,Fix2,stimuli/Smell/8.jpg,right,,,,,,,,,,,0,84,84,84,,,,,,,,,,,,,,,,,,,,,,,,,,,,,,,,,,,398.0499121369976,None,398.0499121369976,None,right,1,1.1042132119982853,398.0499121369976,None,1,399.18283543399957,None,,,,,,,,,,,,,,,,,,,,,,,,,,,,,,,,,,,,,,,,,,,,,,,,,,,,,,,,,,,,,,,,,,,10,Female,43,001,2021_Mar_09_2103,cal_abstract,2020.2.4,60.00275940576783,
,Cond,stimuli/Healthy/66.jpg,left,,,,,,,,,,,0,85,85,85,,,,,,,,,,,,,,,,,,,,,,,,,,,,,,,,,,,399.94977447699785,None,399.94977447699785,None,left,1,1.589024172997597,399.94977447699785,None,1,401.5662863469988,None,,,,,,,,,,,,,,,,,,,,,,,,,,,,,,,,,,,,,,,,,,,,,,,,,,,,,,,,,,,,,,,,,,,10,Female,43,001,2021_Mar_09_2103,cal_abstract,2020.2.4,60.00275940576783,
,Cond,stimuli/Healthy/49.jpg,right,,,,,,,,,,,0,86,86,86,,,,,,,,,,,,,,,,,,,,,,,,,,,,,,,,,,,402.3335524369977,None,402.3335524369977,None,left,0,1.1283075800020015,402.3335524369977,None,0,403.4830388720002,None,,,,,,,,,,,,,,,,,,,,,,,,,,,,,,,,,,,,,,,,,,,,,,,,,,,,,,,,,,,,,,,,,,,10,Female,43,001,2021_Mar_09_2103,cal_abstract,2020.2.4,60.00275940576783,
,Fix1,stimuli/Soft/58.jpg,left,,,,,,,,,,,0,87,87,87,,,,,,,,,,,,,,,,,,,,,,,,,,,,,,,,,,,404.26691859199855,None,404.26691859199855,None,left,1,0.8857830980014114,404.26691859199855,None,1,405.18341009899814,None,,,,,,,,,,,,,,,,,,,,,,,,,,,,,,,,,,,,,,,,,,,,,,,,,,,,,,,,,,,,,,,,,,,10,Female,43,001,2021_Mar_09_2103,cal_abstract,2020.2.4,60.00275940576783,
,Cond,stimuli/Healthy/32.jpg,right,,,,,,,,,,,0,88,88,88,,,,,,,,,,,,,,,,,,,,,,,,,,,,,,,,,,,405.9501672939987,None,405.9501672939987,None,right,1,2.759001750000607,405.9501672939987,None,1,408.7336194519994,None,,,,,,,,,,,,,,,,,,,,,,,,,,,,,,,,,,,,,,,,,,,,,,,,,,,,,,,,,,,,,,,,,,,10,Female,43,001,2021_Mar_09_2103,cal_abstract,2020.2.4,60.00275940576783,
,Cond,stimuli/Healthy/26.jpg,left,,,,,,,,,,,0,89,89,89,,,,,,,,,,,,,,,,,,,,,,,,,,,,,,,,,,,409.5004197119997,None,409.5004197119997,None,left,1,11.156946319999406,409.5004197119997,None,1,420.68439746399963,None,,,,,,,,,,,,,,,,,,,,,,,,,,,,,,,,,,,,,,,,,,,,,,,,,,,,,,,,,,,,,,,,,,,10,Female,43,001,2021_Mar_09_2103,cal_abstract,2020.2.4,60.00275940576783,
,Fix2,stimuli/Smell/4.jpg,right,,,,,,,,,,,0,90,90,90,,,,,,,,,,,,,,,,,,,,,,,,,,,,,,,,,,,421.45115450400044,None,421.45115450400044,None,right,1,0.7786545329981891,421.45115450400044,None,1,422.25116474699826,None,,,,,,,,,,,,,,,,,,,,,,,,,,,,,,,,,,,,,,,,,,,,,,,,,,,,,,,,,,,,,,,,,,,10,Female,43,001,2021_Mar_09_2103,cal_abstract,2020.2.4,60.00275940576783,
,Fix2,stimuli/Smell/21.jpg,right,,,,,,,,,,,0,91,91,91,,,,,,,,,,,,,,,,,,,,,,,,,,,,,,,,,,,423.0181153019985,None,423.0181153019985,None,right,1,1.2995659929983958,423.0181153019985,None,1,424.33489152699985,None,,,,,,,,,,,,,,,,,,,,,,,,,,,,,,,,,,,,,,,,,,,,,,,,,,,,,,,,,,,,,,,,,,,10,Female,43,001,2021_Mar_09_2103,cal_abstract,2020.2.4,60.00275940576783,
,Fix1,stimuli/Soft/16.jpg,left,,,,,,,,,,,0,92,92,92,,,,,,,,,,,,,,,,,,,,,,,,,,,,,,,,,,,425.10352789899844,None,425.10352789899844,None,left,1,0.9970886629998859,425.10352789899844,None,1,426.11809608399926,None,,,,,,,,,,,,,,,,,,,,,,,,,,,,,,,,,,,,,,,,,,,,,,,,,,,,,,,,,,,,,,,,,,,10,Female,43,001,2021_Mar_09_2103,cal_abstract,2020.2.4,60.00275940576783,
,Fix2,stimuli/Smell/15.jpg,right,,,,,,,,,,,0,93,93,93,,,,,,,,,,,,,,,,,,,,,,,,,,,,,,,,,,,426.884847598998,None,426.884847598998,None,right,1,4.211337855002057,426.884847598998,None,1,431.1185283470004,None,,,,,,,,,,,,,,,,,,,,,,,,,,,,,,,,,,,,,,,,,,,,,,,,,,,,,,,,,,,,,,,,,,,10,Female,43,001,2021_Mar_09_2103,cal_abstract,2020.2.4,60.00275940576783,
,Fix2,stimuli/Smell/11.jpg,right,,,,,,,,,,,0,94,94,94,,,,,,,,,,,,,,,,,,,,,,,,,,,,,,,,,,,431.8854243789974,None,431.8854243789974,None,right,1,1.629753092998726,431.8854243789974,None,1,433.5352606239976,None,,,,,,,,,,,,,,,,,,,,,,,,,,,,,,,,,,,,,,,,,,,,,,,,,,,,,,,,,,,,,,,,,,,10,Female,43,001,2021_Mar_09_2103,cal_abstract,2020.2.4,60.00275940576783,
,Fix1,stimuli/Soft/56.jpg,left,,,,,,,,,,,0,95,95,95,,,,,,,,,,,,,,,,,,,,,,,,,,,,,,,,,,,434.3019271339981,None,434.3019271339981,None,left,1,3.519984114998806,434.3019271339981,None,1,437.85231648699846,None,,,,,,,,,,,,,,,,,,,,,,,,,,,,,,,,,,,,,,,,,,,,,,,,,,,,,,,,,,,,,,,,,,,10,Female,43,001,2021_Mar_09_2103,cal_abstract,2020.2.4,60.00275940576783,
,Cond,stimuli/Healthy/44.jpg,right,,,,,,,,,,,0,96,96,96,,,,,,,,,,,,,,,,,,,,,,,,,,,,,,,,,,,438.6191895390002,None,438.6191895390002,None,right,1,6.573905594999815,438.6191895390002,None,1,445.21948746899943,None,,,,,,,,,,,,,,,,,,,,,,,,,,,,,,,,,,,,,,,,,,,,,,,,,,,,,,,,,,,,,,,,,,,10,Female,43,001,2021_Mar_09_2103,cal_abstract,2020.2.4,60.00275940576783,
,Fix1,stimuli/Soft/26.jpg,left,,,,,,,,,,,0,97,97,97,,,,,,,,,,,,,,,,,,,,,,,,,,,,,,,,,,,445.98625847400035,None,445.98625847400035,None,right,0,5.448606039997685,445.98625847400035,None,0,451.4532221139998,None,,,,,,,,,,,,,,,,,,,,,,,,,,,,,,,,,,,,,,,,,,,,,,,,,,,,,,,,,,,,,,,,,,,10,Female,43,001,2021_Mar_09_2103,cal_abstract,2020.2.4,60.00275940576783,
,Fix1,stimuli/Soft/8.jpg,left,,,,,,,,,,,0,98,98,98,,,,,,,,,,,,,,,,,,,,,,,,,,,,,,,,,,,452.2199585870003,None,452.2199585870003,None,left,1,2.966135907001444,452.2199585870003,None,1,455.203378451999,None,,,,,,,,,,,,,,,,,,,,,,,,,,,,,,,,,,,,,,,,,,,,,,,,,,,,,,,,,,,,,,,,,,,10,Female,43,001,2021_Mar_09_2103,cal_abstract,2020.2.4,60.00275940576783,
,Fix1,stimuli/Soft/6.jpg,left,,,,,,,,,,,0,99,99,99,,,,,,,,,,,,,,,,,,,,,,,,,,,,,,,,,,,455.970108857,None,455.970108857,None,left,1,1.1567457419987477,455.970108857,None,1,457.15341082899977,None,,,,,,,,,,,,,,,,,,,,,,,,,,,,,,,,,,,,,,,,,,,,,,,,,,,,,,,,,,,,,,,,,,,10,Female,43,001,2021_Mar_09_2103,cal_abstract,2020.2.4,60.00275940576783,
,Cond,stimuli/Healthy/31.jpg,right,,,,,,,,,,,0,100,100,100,,,,,,,,,,,,,,,,,,,,,,,,,,,,,,,,,,,457.9202686869976,None,457.9202686869976,None,right,1,3.8384640100011893,457.9202686869976,None,1,461.78720883200003,None,,,,,,,,,,,,,,,,,,,,,,,,,,,,,,,,,,,,,,,,,,,,,,,,,,,,,,,,,,,,,,,,,,,10,Female,43,001,2021_Mar_09_2103,cal_abstract,2020.2.4,60.00275940576783,
,Cond,stimuli/Healthy/18.jpg,left,,,,,,,,,,,0,101,101,101,,,,,,,,,,,,,,,,,,,,,,,,,,,,,,,,,,,462.5541988090008,None,462.5541988090008,None,left,1,1.7558384430012666,462.5541988090008,None,1,464.3373420989992,None,,,,,,,,,,,,,,,,,,,,,,,,,,,,,,,,,,,,,,,,,,,,,,,,,,,,,,,,,,,,,,,,,,,10,Female,43,001,2021_Mar_09_2103,cal_abstract,2020.2.4,60.00275940576783,
,Fix1,stimuli/Soft/11.jpg,left,,,,,,,,,,,0,102,102,102,,,,,,,,,,,,,,,,,,,,,,,,,,,,,,,,,,,465.12086598899987,None,465.12086598899987,None,left,1,1.4721762500012119,465.12086598899987,None,1,466.6210988540006,None,,,,,,,,,,,,,,,,,,,,,,,,,,,,,,,,,,,,,,,,,,,,,,,,,,,,,,,,,,,,,,,,,,,10,Female,43,001,2021_Mar_09_2103,cal_abstract,2020.2.4,60.00275940576783,
,Cond,stimuli/Healthy/37.jpg,right,,,,,,,,,,,0,103,103,103,,,,,,,,,,,,,,,,,,,,,,,,,,,,,,,,,,,467.38800088199787,None,467.38800088199787,None,right,1,2.0818399599993427,467.38800088199787,None,1,469.48767072199917,None,,,,,,,,,,,,,,,,,,,,,,,,,,,,,,,,,,,,,,,,,,,,,,,,,,,,,,,,,,,,,,,,,,,10,Female,43,001,2021_Mar_09_2103,cal_abstract,2020.2.4,60.00275940576783,
,Fix2,stimuli/Smell/25.jpg,right,,,,,,,,,,,0,104,104,104,,,,,,,,,,,,,,,,,,,,,,,,,,,,,,,,,,,470.2542135570002,None,470.2542135570002,None,right,1,1.0853249549982138,470.2542135570002,None,1,471.3712734969995,None,,,,,,,,,,,,,,,,,,,,,,,,,,,,,,,,,,,,,,,,,,,,,,,,,,,,,,,,,,,,,,,,,,,10,Female,43,001,2021_Mar_09_2103,cal_abstract,2020.2.4,60.00275940576783,
,Fix1,stimuli/Soft/31.jpg,left,,,,,,,,,,,0,105,105,105,,,,,,,,,,,,,,,,,,,,,,,,,,,,,,,,,,,472.1407901269995,None,472.1407901269995,None,left,1,0.7368195999988529,472.1407901269995,None,1,472.90454844899796,None,,,,,,,,,,,,,,,,,,,,,,,,,,,,,,,,,,,,,,,,,,,,,,,,,,,,,,,,,,,,,,,,,,,10,Female,43,001,2021_Mar_09_2103,cal_abstract,2020.2.4,60.00275940576783,
,Cond,stimuli/Healthy/9.jpg,right,,,,,,,,,,,0,106,106,106,,,,,,,,,,,,,,,,,,,,,,,,,,,,,,,,,,,473.67137757199816,None,473.67137757199816,None,right,1,1.5550809070009564,473.67137757199816,None,1,475.25493604700023,None,,,,,,,,,,,,,,,,,,,,,,,,,,,,,,,,,,,,,,,,,,,,,,,,,,,,,,,,,,,,,,,,,,,10,Female,43,001,2021_Mar_09_2103,cal_abstract,2020.2.4,60.00275940576783,
,Fix2,stimuli/Smell/26.jpg,right,,,,,,,,,,,0,107,107,107,,,,,,,,,,,,,,,,,,,,,,,,,,,,,,,,,,,476.0219187369985,None,476.0219187369985,None,right,1,1.772293442998489,476.0219187369985,None,1,477.821646608998,None,,,,,,,,,,,,,,,,,,,,,,,,,,,,,,,,,,,,,,,,,,,,,,,,,,,,,,,,,,,,,,,,,,,10,Female,43,001,2021_Mar_09_2103,cal_abstract,2020.2.4,60.00275940576783,
,Cond,stimuli/Healthy/17.jpg,left,,,,,,,,,,,0,108,108,108,,,,,,,,,,,,,,,,,,,,,,,,,,,,,,,,,,,478.5885108570001,None,478.5885108570001,None,left,1,0.8446692069992423,478.5885108570001,None,1,479.4550472919982,None,,,,,,,,,,,,,,,,,,,,,,,,,,,,,,,,,,,,,,,,,,,,,,,,,,,,,,,,,,,,,,,,,,,10,Female,43,001,2021_Mar_09_2103,cal_abstract,2020.2.4,60.00275940576783,
,Fix1,stimuli/Soft/27.jpg,left,,,,,,,,,,,0,109,109,109,,,,,,,,,,,,,,,,,,,,,,,,,,,,,,,,,,,480.2220396269986,None,480.2220396269986,None,left,1,1.1770181050014799,480.2220396269986,None,1,481.42193241399946,None,,,,,,,,,,,,,,,,,,,,,,,,,,,,,,,,,,,,,,,,,,,,,,,,,,,,,,,,,,,,,,,,,,,10,Female,43,001,2021_Mar_09_2103,cal_abstract,2020.2.4,60.00275940576783,
,Cond,stimuli/Healthy/11.jpg,right,,,,,,,,,,,0,110,110,110,,,,,,,,,,,,,,,,,,,,,,,,,,,,,,,,,,,482.18872736699996,None,482.18872736699996,None,right,1,1.4662306549980713,482.18872736699996,None,1,483.67220318199907,None,,,,,,,,,,,,,,,,,,,,,,,,,,,,,,,,,,,,,,,,,,,,,,,,,,,,,,,,,,,,,,,,,,,10,Female,43,001,2021_Mar_09_2103,cal_abstract,2020.2.4,60.00275940576783,
,Fix1,stimuli/Soft/18.jpg,left,,,,,,,,,,,0,111,111,111,,,,,,,,,,,,,,,,,,,,,,,,,,,,,,,,,,,484.4389515039984,None,484.4389515039984,None,left,1,1.7257987999983015,484.4389515039984,None,1,486.1891180669991,None,,,,,,,,,,,,,,,,,,,,,,,,,,,,,,,,,,,,,,,,,,,,,,,,,,,,,,,,,,,,,,,,,,,10,Female,43,001,2021_Mar_09_2103,cal_abstract,2020.2.4,60.00275940576783,
,Fix1,stimuli/Soft/38.jpg,left,,,,,,,,,,,0,112,112,112,,,,,,,,,,,,,,,,,,,,,,,,,,,,,,,,,,,486.9557026939983,None,486.9557026939983,None,left,1,2.2128269580025517,486.9557026939983,None,1,489.18946026900085,None,,,,,,,,,,,,,,,,,,,,,,,,,,,,,,,,,,,,,,,,,,,,,,,,,,,,,,,,,,,,,,,,,,,10,Female,43,001,2021_Mar_09_2103,cal_abstract,2020.2.4,60.00275940576783,
,Fix2,stimuli/Smell/43.jpg,right,,,,,,,,,,,0,113,113,113,,,,,,,,,,,,,,,,,,,,,,,,,,,,,,,,,,,489.9559711820002,None,489.9559711820002,None,right,1,0.7385548849997576,489.9559711820002,None,1,490.7225961919976,None,,,,,,,,,,,,,,,,,,,,,,,,,,,,,,,,,,,,,,,,,,,,,,,,,,,,,,,,,,,,,,,,,,,10,Female,43,001,2021_Mar_09_2103,cal_abstract,2020.2.4,60.00275940576783,
,Fix2,stimuli/Smell/47.jpg,right,,,,,,,,,,,0,114,114,114,,,,,,,,,,,,,,,,,,,,,,,,,,,,,,,,,,,491.50612892199933,None,491.50612892199933,None,right,1,0.7873533249985485,491.50612892199933,None,1,492.32265270399876,None,,,,,,,,,,,,,,,,,,,,,,,,,,,,,,,,,,,,,,,,,,,,,,,,,,,,,,,,,,,,,,,,,,,10,Female,43,001,2021_Mar_09_2103,cal_abstract,2020.2.4,60.00275940576783,
,Fix1,stimuli/Soft/21.jpg,left,,,,,,,,,,,0,115,115,115,,,,,,,,,,,,,,,,,,,,,,,,,,,,,,,,,,,493.0895269069988,None,493.0895269069988,None,left,1,2.052680215001601,493.0895269069988,None,1,495.1730765270004,None,,,,,,,,,,,,,,,,,,,,,,,,,,,,,,,,,,,,,,,,,,,,,,,,,,,,,,,,,,,,,,,,,,,10,Female,43,001,2021_Mar_09_2103,cal_abstract,2020.2.4,60.00275940576783,
,Cond,stimuli/Healthy/62.jpg,right,,,,,,,,,,,0,116,116,116,,,,,,,,,,,,,,,,,,,,,,,,,,,,,,,,,,,495.9397675069995,None,495.9397675069995,None,right,1,1.6452664850003202,495.9397675069995,None,1,497.60625026900016,None,,,,,,,,,,,,,,,,,,,,,,,,,,,,,,,,,,,,,,,,,,,,,,,,,,,,,,,,,,,,,,,,,,,10,Female,43,001,2021_Mar_09_2103,cal_abstract,2020.2.4,60.00275940576783,
,Cond,stimuli/Healthy/36.jpg,left,,,,,,,,,,,0,117,117,117,,,,,,,,,,,,,,,,,,,,,,,,,,,,,,,,,,,498.3732423119982,None,498.3732423119982,None,right,0,2.391571180000028,498.3732423119982,None,0,500.7899291920003,None,,,,,,,,,,,,,,,,,,,,,,,,,,,,,,,,,,,,,,,,,,,,,,,,,,,,,,,,,,,,,,,,,,,10,Female,43,001,2021_Mar_09_2103,cal_abstract,2020.2.4,60.00275940576783,
,Fix1,stimuli/Soft/30.jpg,left,,,,,,,,,,,0,118,118,118,,,,,,,,,,,,,,,,,,,,,,,,,,,,,,,,,,,501.5588825019986,None,501.5588825019986,None,left,1,1.0486527050015866,501.5588825019986,None,1,502.6400817670001,None,,,,,,,,,,,,,,,,,,,,,,,,,,,,,,,,,,,,,,,,,,,,,,,,,,,,,,,,,,,,,,,,,,,10,Female,43,001,2021_Mar_09_2103,cal_abstract,2020.2.4,60.00275940576783,
,Fix2,stimuli/Smell/46.jpg,right,,,,,,,,,,,0,119,119,119,,,,,,,,,,,,,,,,,,,,,,,,,,,,,,,,,,,503.40686098899823,None,503.40686098899823,None,right,1,3.1196724849978636,503.40686098899823,None,1,506.5570878369981,None,,,,,,,,,,,,,,,,,,,,,,,,,,,,,,,,,,,,,,,,,,,,,,,,,,,,,,,,,,,,,,,,,,,10,Female,43,001,2021_Mar_09_2103,cal_abstract,2020.2.4,60.00275940576783,
,Fix2,stimuli/Smell/51.jpg,right,,,,,,,,,,,0,120,120,120,,,,,,,,,,,,,,,,,,,,,,,,,,,,,,,,,,,507.32402649899814,None,507.32402649899814,None,right,1,0.7993593620012689,507.32402649899814,None,1,508.14043335399765,None,,,,,,,,,,,,,,,,,,,,,,,,,,,,,,,,,,,,,,,,,,,,,,,,,,,,,,,,,,,,,,,,,,,10,Female,43,001,2021_Mar_09_2103,cal_abstract,2020.2.4,60.00275940576783,
,Fix2,stimuli/Smell/20.jpg,right,,,,,,,,,,,0,121,121,121,,,,,,,,,,,,,,,,,,,,,,,,,,,,,,,,,,,508.9073834890005,None,508.9073834890005,None,right,1,1.809800068000186,508.9073834890005,None,1,510.7406162469997,None,,,,,,,,,,,,,,,,,,,,,,,,,,,,,,,,,,,,,,,,,,,,,,,,,,,,,,,,,,,,,,,,,,,10,Female,43,001,2021_Mar_09_2103,cal_abstract,2020.2.4,60.00275940576783,
,Cond,stimuli/Healthy/14.jpg,left,,,,,,,,,,,0,122,122,122,,,,,,,,,,,,,,,,,,,,,,,,,,,,,,,,,,,511.50744890200076,None,511.50744890200076,None,left,1,4.245964624999033,511.50744890200076,None,1,515.7742553589997,None,,,,,,,,,,,,,,,,,,,,,,,,,,,,,,,,,,,,,,,,,,,,,,,,,,,,,,,,,,,,,,,,,,,10,Female,43,001,2021_Mar_09_2103,cal_abstract,2020.2.4,60.00275940576783,
,Cond,stimuli/Healthy/19.jpg,right,,,,,,,,,,,0,123,123,123,,,,,,,,,,,,,,,,,,,,,,,,,,,,,,,,,,,516.5410842419988,None,516.5410842419988,None,right,1,1.154829784998583,516.5410842419988,None,1,517.7245280869975,None,,,,,,,,,,,,,,,,,,,,,,,,,,,,,,,,,,,,,,,,,,,,,,,,,,,,,,,,,,,,,,,,,,,10,Female,43,001,2021_Mar_09_2103,cal_abstract,2020.2.4,60.00275940576783,
,Cond,stimuli/Healthy/6.jpg,left,,,,,,,,,,,0,124,124,124,,,,,,,,,,,,,,,,,,,,,,,,,,,,,,,,,,,518.5062759489992,None,518.5062759489992,None,left,1,1.5122820970027533,518.5062759489992,None,1,520.0400304639988,None,,,,,,,,,,,,,,,,,,,,,,,,,,,,,,,,,,,,,,,,,,,,,,,,,,,,,,,,,,,,,,,,,,,10,Female,43,001,2021_Mar_09_2103,cal_abstract,2020.2.4,60.00275940576783,
,Cond,stimuli/Healthy/56.jpg,right,,,,,,,,,,,0,125,125,125,,,,,,,,,,,,,,,,,,,,,,,,,,,,,,,,,,,520.8082958790001,None,520.8082958790001,None,right,1,1.1972900799992203,520.8082958790001,None,1,522.0249176289981,None,,,,,,,,,,,,,,,,,,,,,,,,,,,,,,,,,,,,,,,,,,,,,,,,,,,,,,,,,,,,,,,,,,,10,Female,43,001,2021_Mar_09_2103,cal_abstract,2020.2.4,60.00275940576783,
,Fix2,stimuli/Smell/19.jpg,right,,,,,,,,,,,0,126,126,126,,,,,,,,,,,,,,,,,,,,,,,,,,,,,,,,,,,522.8081238119994,None,522.8081238119994,None,right,1,2.517149038001662,522.8081238119994,None,1,525.3586404989983,None,,,,,,,,,,,,,,,,,,,,,,,,,,,,,,,,,,,,,,,,,,,,,,,,,,,,,,,,,,,,,,,,,,,10,Female,43,001,2021_Mar_09_2103,cal_abstract,2020.2.4,60.00275940576783,
,Cond,stimuli/Healthy/68.jpg,left,,,,,,,,,,,0,127,127,127,,,,,,,,,,,,,,,,,,,,,,,,,,,,,,,,,,,526.1251531839989,None,526.1251531839989,None,left,1,2.6949142979974567,526.1251531839989,None,1,528.8420080119977,None,,,,,,,,,,,,,,,,,,,,,,,,,,,,,,,,,,,,,,,,,,,,,,,,,,,,,,,,,,,,,,,,,,,10,Female,43,001,2021_Mar_09_2103,cal_abstract,2020.2.4,60.00275940576783,
,Fix2,stimuli/Smell/52.jpg,right,,,,,,,,,,,0,128,128,128,,,,,,,,,,,,,,,,,,,,,,,,,,,,,,,,,,,529.625576268998,None,529.625576268998,None,right,1,0.8555295250007475,529.625576268998,None,1,530.5076110539994,None,,,,,,,,,,,,,,,,,,,,,,,,,,,,,,,,,,,,,,,,,,,,,,,,,,,,,,,,,,,,,,,,,,,10,Female,43,001,2021_Mar_09_2103,cal_abstract,2020.2.4,60.00275940576783,
,Fix1,stimuli/Soft/19.jpg,left,,,,,,,,,,,0,129,129,129,,,,,,,,,,,,,,,,,,,,,,,,,,,,,,,,,,,531.2772765240006,None,531.2772765240006,None,left,1,0.9637822330005292,531.2772765240006,None,1,532.2588176719983,None,,,,,,,,,,,,,,,,,,,,,,,,,,,,,,,,,,,,,,,,,,,,,,,,,,,,,,,,,,,,,,,,,,,10,Female,43,001,2021_Mar_09_2103,cal_abstract,2020.2.4,60.00275940576783,
,Fix1,stimuli/Soft/33.jpg,left,,,,,,,,,,,0,130,130,130,,,,,,,,,,,,,,,,,,,,,,,,,,,,,,,,,,,533.0256989890004,None,533.0256989890004,None,left,1,0.7391583000026003,533.0256989890004,None,1,533.7917498589995,None,,,,,,,,,,,,,,,,,,,,,,,,,,,,,,,,,,,,,,,,,,,,,,,,,,,,,,,,,,,,,,,,,,,10,Female,43,001,2021_Mar_09_2103,cal_abstract,2020.2.4,60.00275940576783,
,Fix2,stimuli/Smell/39.jpg,right,,,,,,,,,,,0,131,131,131,,,,,,,,,,,,,,,,,,,,,,,,,,,,,,,,,,,534.5590413589998,None,534.5590413589998,None,right,1,1.3056864920035878,534.5590413589998,None,1,535.8919884520001,None,,,,,,,,,,,,,,,,,,,,,,,,,,,,,,,,,,,,,,,,,,,,,,,,,,,,,,,,,,,,,,,,,,,10,Female,43,001,2021_Mar_09_2103,cal_abstract,2020.2.4,60.00275940576783,
,Fix2,stimuli/Smell/1.jpg,right,,,,,,,,,,,0,132,132,132,,,,,,,,,,,,,,,,,,,,,,,,,,,,,,,,,,,536.6594717689986,None,536.6594717689986,None,right,1,1.0729918270008056,536.6594717689986,None,1,537.7591484919976,None,,,,,,,,,,,,,,,,,,,,,,,,,,,,,,,,,,,,,,,,,,,,,,,,,,,,,,,,,,,,,,,,,,,10,Female,43,001,2021_Mar_09_2103,cal_abstract,2020.2.4,60.00275940576783,
,Cond,stimuli/Healthy/8.jpg,left,,,,,,,,,,,0,133,133,133,,,,,,,,,,,,,,,,,,,,,,,,,,,,,,,,,,,538.5259628870008,None,538.5259628870008,None,left,1,1.1024538050005503,538.5259628870008,None,1,539.6592143369999,None,,,,,,,,,,,,,,,,,,,,,,,,,,,,,,,,,,,,,,,,,,,,,,,,,,,,,,,,,,,,,,,,,,,10,Female,43,001,2021_Mar_09_2103,cal_abstract,2020.2.4,60.00275940576783,
,Fix2,stimuli/Smell/38.jpg,right,,,,,,,,,,,0,134,134,134,,,,,,,,,,,,,,,,,,,,,,,,,,,,,,,,,,,540.426267977,None,540.426267977,None,right,1,1.0241294350016688,540.426267977,None,1,541.4760307569995,None,,,,,,,,,,,,,,,,,,,,,,,,,,,,,,,,,,,,,,,,,,,,,,,,,,,,,,,,,,,,,,,,,,,10,Female,43,001,2021_Mar_09_2103,cal_abstract,2020.2.4,60.00275940576783,
,Fix2,stimuli/Smell/41.jpg,right,,,,,,,,,,,0,135,135,135,,,,,,,,,,,,,,,,,,,,,,,,,,,,,,,,,,,542.2427988620002,None,542.2427988620002,None,right,1,0.7265001630003098,542.2427988620002,None,1,542.9930546340001,None,,,,,,,,,,,,,,,,,,,,,,,,,,,,,,,,,,,,,,,,,,,,,,,,,,,,,,,,,,,,,,,,,,,10,Female,43,001,2021_Mar_09_2103,cal_abstract,2020.2.4,60.00275940576783,
,Fix1,stimuli/Soft/9.jpg,left,,,,,,,,,,,0,136,136,136,,,,,,,,,,,,,,,,,,,,,,,,,,,,,,,,,,,543.7598988719983,None,543.7598988719983,None,left,1,1.3153040799988958,543.7598988719983,None,1,545.0931635319976,None,,,,,,,,,,,,,,,,,,,,,,,,,,,,,,,,,,,,,,,,,,,,,,,,,,,,,,,,,,,,,,,,,,,10,Female,43,001,2021_Mar_09_2103,cal_abstract,2020.2.4,60.00275940576783,
,Fix1,stimuli/Soft/59.jpg,left,,,,,,,,,,,0,137,137,137,,,,,,,,,,,,,,,,,,,,,,,,,,,,,,,,,,,545.8598148569981,None,545.8598148569981,None,left,1,1.606160027000442,545.8598148569981,None,1,547.4932902219989,None,,,,,,,,,,,,,,,,,,,,,,,,,,,,,,,,,,,,,,,,,,,,,,,,,,,,,,,,,,,,,,,,,,,10,Female,43,001,2021_Mar_09_2103,cal_abstract,2020.2.4,60.00275940576783,
,Fix2,stimuli/Smell/17.jpg,right,,,,,,,,,,,0,138,138,138,,,,,,,,,,,,,,,,,,,,,,,,,,,,,,,,,,,548.260186214,None,548.260186214,None,right,1,0.857721792999655,548.260186214,None,1,549.1433331189983,None,,,,,,,,,,,,,,,,,,,,,,,,,,,,,,,,,,,,,,,,,,,,,,,,,,,,,,,,,,,,,,,,,,,10,Female,43,001,2021_Mar_09_2103,cal_abstract,2020.2.4,60.00275940576783,
,Fix2,stimuli/Smell/36.jpg,right,,,,,,,,,,,0,139,139,139,,,,,,,,,,,,,,,,,,,,,,,,,,,,,,,,,,,549.9103321289986,None,549.9103321289986,None,right,1,0.8486449249976431,549.9103321289986,None,1,550.776810419,None,,,,,,,,,,,,,,,,,,,,,,,,,,,,,,,,,,,,,,,,,,,,,,,,,,,,,,,,,,,,,,,,,,,10,Female,43,001,2021_Mar_09_2103,cal_abstract,2020.2.4,60.00275940576783,
,Fix2,stimuli/Smell/2.jpg,right,,,,,,,,,,,0,140,140,140,,,,,,,,,,,,,,,,,,,,,,,,,,,,,,,,,,,551.5430681619982,None,551.5430681619982,None,right,1,0.8476472830006969,551.5430681619982,None,1,552.4102265889996,None,,,,,,,,,,,,,,,,,,,,,,,,,,,,,,,,,,,,,,,,,,,,,,,,,,,,,,,,,,,,,,,,,,,10,Female,43,001,2021_Mar_09_2103,cal_abstract,2020.2.4,60.00275940576783,
,Fix2,stimuli/Smell/9.jpg,right,,,,,,,,,,,0,141,141,141,,,,,,,,,,,,,,,,,,,,,,,,,,,,,,,,,,,553.1771047820002,None,553.1771047820002,None,right,1,0.7404113650009094,553.1771047820002,None,1,553.9434786739985,None,,,,,,,,,,,,,,,,,,,,,,,,,,,,,,,,,,,,,,,,,,,,,,,,,,,,,,,,,,,,,,,,,,,10,Female,43,001,2021_Mar_09_2103,cal_abstract,2020.2.4,60.00275940576783,
,Fix1,stimuli/Soft/17.jpg,left,,,,,,,,,,,0,142,142,142,,,,,,,,,,,,,,,,,,,,,,,,,,,,,,,,,,,554.710466493998,None,554.710466493998,None,left,1,1.7229073519993108,554.710466493998,None,1,556.4604011720003,None,,,,,,,,,,,,,,,,,,,,,,,,,,,,,,,,,,,,,,,,,,,,,,,,,,,,,,,,,,,,,,,,,,,10,Female,43,001,2021_Mar_09_2103,cal_abstract,2020.2.4,60.00275940576783,
,Fix2,stimuli/Smell/40.jpg,right,,,,,,,,,,,0,143,143,143,,,,,,,,,,,,,,,,,,,,,,,,,,,,,,,,,,,557.2270860419994,None,557.2270860419994,None,right,1,1.0033060150017263,557.2270860419994,None,1,558.2606459919989,None,,,,,,,,,,,,,,,,,,,,,,,,,,,,,,,,,,,,,,,,,,,,,,,,,,,,,,,,,,,,,,,,,,,10,Female,43,001,2021_Mar_09_2103,cal_abstract,2020.2.4,60.00275940576783,
,Cond,stimuli/Healthy/21.jpg,left,,,,,,,,,,,0,144,144,144,,,,,,,,,,,,,,,,,,,,,,,,,,,,,,,,,,,559.043820611998,None,559.043820611998,None,left,1,1.3374151999996684,559.043820611998,None,1,560.4105471539988,None,,,,,,,,,,,,,,,,,,,,,,,,,,,,,,,,,,,,,,,,,,,,,,,,,,,,,,,,,,,,,,,,,,,10,Female,43,001,2021_Mar_09_2103,cal_abstract,2020.2.4,60.00275940576783,
,Cond,stimuli/Healthy/64.jpg,right,,,,,,,,,,,0,145,145,145,,,,,,,,,,,,,,,,,,,,,,,,,,,,,,,,,,,561.1775781590004,None,561.1775781590004,None,right,1,1.2784794120016159,561.1775781590004,None,1,562.4774507369984,None,,,,,,,,,,,,,,,,,,,,,,,,,,,,,,,,,,,,,,,,,,,,,,,,,,,,,,,,,,,,,,,,,,,10,Female,43,001,2021_Mar_09_2103,cal_abstract,2020.2.4,60.00275940576783,
,Fix1,stimuli/Soft/24.jpg,left,,,,,,,,,,,0,146,146,146,,,,,,,,,,,,,,,,,,,,,,,,,,,,,,,,,,,563.2439915639989,None,563.2439915639989,None,left,1,1.1649990750011057,563.2439915639989,None,1,564.4275536419991,None,,,,,,,,,,,,,,,,,,,,,,,,,,,,,,,,,,,,,,,,,,,,,,,,,,,,,,,,,,,,,,,,,,,10,Female,43,001,2021_Mar_09_2103,cal_abstract,2020.2.4,60.00275940576783,
,Cond,stimuli/Healthy/45.jpg,right,,,,,,,,,,,0,147,147,147,,,,,,,,,,,,,,,,,,,,,,,,,,,,,,,,,,,565.1943835419988,None,565.1943835419988,None,right,1,1.3903064030018868,565.1943835419988,None,1,566.6111239169986,None,,,,,,,,,,,,,,,,,,,,,,,,,,,,,,,,,,,,,,,,,,,,,,,,,,,,,,,,,,,,,,,,,,,10,Female,43,001,2021_Mar_09_2103,cal_abstract,2020.2.4,60.00275940576783,
,Cond,stimuli/Healthy/29.jpg,left,,,,,,,,,,,0,148,148,148,,,,,,,,,,,,,,,,,,,,,,,,,,,,,,,,,,,567.3780673420006,None,567.3780673420006,None,left,1,1.0635597850014165,567.3780673420006,None,1,568.4612342239998,None,,,,,,,,,,,,,,,,,,,,,,,,,,,,,,,,,,,,,,,,,,,,,,,,,,,,,,,,,,,,,,,,,,,10,Female,43,001,2021_Mar_09_2103,cal_abstract,2020.2.4,60.00275940576783,
,Fix1,stimuli/Soft/42.jpg,left,,,,,,,,,,,0,149,149,149,,,,,,,,,,,,,,,,,,,,,,,,,,,,,,,,,,,569.2280892220006,None,569.2280892220006,None,left,1,2.0023583120018884,569.2280892220006,None,1,571.2613793769997,None,,,,,,,,,,,,,,,,,,,,,,,,,,,,,,,,,,,,,,,,,,,,,,,,,,,,,,,,,,,,,,,,,,,10,Female,43,001,2021_Mar_09_2103,cal_abstract,2020.2.4,60.00275940576783,
,Cond,stimuli/Healthy/55.jpg,right,,,,,,,,,,,0,150,150,150,,,,,,,,,,,,,,,,,,,,,,,,,,,,,,,,,,,572.0280294570002,None,572.0280294570002,None,right,1,1.0815267079997284,572.0280294570002,None,1,573.1284210320009,None,,,,,,,,,,,,,,,,,,,,,,,,,,,,,,,,,,,,,,,,,,,,,,,,,,,,,,,,,,,,,,,,,,,10,Female,43,001,2021_Mar_09_2103,cal_abstract,2020.2.4,60.00275940576783,
,Fix1,stimuli/Soft/15.jpg,left,,,,,,,,,,,0,151,151,151,,,,,,,,,,,,,,,,,,,,,,,,,,,,,,,,,,,573.8947648590001,None,573.8947648590001,None,left,1,0.8996659249969525,573.8947648590001,None,1,574.8117557389996,None,,,,,,,,,,,,,,,,,,,,,,,,,,,,,,,,,,,,,,,,,,,,,,,,,,,,,,,,,,,,,,,,,,,10,Female,43,001,2021_Mar_09_2103,cal_abstract,2020.2.4,60.00275940576783,
,Fix2,stimuli/Smell/44.jpg,right,,,,,,,,,,,0,152,152,152,,,,,,,,,,,,,,,,,,,,,,,,,,,,,,,,,,,575.5786146690007,None,575.5786146690007,None,right,1,0.7696825519997219,575.5786146690007,None,1,576.3782478219982,None,,,,,,,,,,,,,,,,,,,,,,,,,,,,,,,,,,,,,,,,,,,,,,,,,,,,,,,,,,,,,,,,,,,10,Female,43,001,2021_Mar_09_2103,cal_abstract,2020.2.4,60.00275940576783,
,Fix2,stimuli/Smell/37.jpg,right,,,,,,,,,,,0,153,153,153,,,,,,,,,,,,,,,,,,,,,,,,,,,,,,,,,,,577.1622575319998,None,577.1622575319998,None,right,1,0.7118235419984558,577.1622575319998,None,1,577.895374967,None,,,,,,,,,,,,,,,,,,,,,,,,,,,,,,,,,,,,,,,,,,,,,,,,,,,,,,,,,,,,,,,,,,,10,Female,43,001,2021_Mar_09_2103,cal_abstract,2020.2.4,60.00275940576783,
,Fix1,stimuli/Soft/28.jpg,left,,,,,,,,,,,0,154,154,154,,,,,,,,,,,,,,,,,,,,,,,,,,,,,,,,,,,578.662090941998,None,578.662090941998,None,left,1,0.887866266999481,578.662090941998,None,1,579.5786797590008,None,,,,,,,,,,,,,,,,,,,,,,,,,,,,,,,,,,,,,,,,,,,,,,,,,,,,,,,,,,,,,,,,,,,10,Female,43,001,2021_Mar_09_2103,cal_abstract,2020.2.4,60.00275940576783,
,Cond,stimuli/Healthy/50.jpg,right,,,,,,,,,,,0,155,155,155,,,,,,,,,,,,,,,,,,,,,,,,,,,,,,,,,,,580.3454257070007,None,580.3454257070007,None,right,1,1.0754217700014124,580.3454257070007,None,1,581.4454488819974,None,,,,,,,,,,,,,,,,,,,,,,,,,,,,,,,,,,,,,,,,,,,,,,,,,,,,,,,,,,,,,,,,,,,10,Female,43,001,2021_Mar_09_2103,cal_abstract,2020.2.4,60.00275940576783,
,Fix1,stimuli/Soft/52.jpg,left,,,,,,,,,,,0,156,156,156,,,,,,,,,,,,,,,,,,,,,,,,,,,,,,,,,,,582.2122845640006,None,582.2122845640006,None,left,1,1.1003493150019494,582.2122845640006,None,1,583.3455631939978,None,,,,,,,,,,,,,,,,,,,,,,,,,,,,,,,,,,,,,,,,,,,,,,,,,,,,,,,,,,,,,,,,,,,10,Female,43,001,2021_Mar_09_2103,cal_abstract,2020.2.4,60.00275940576783,
,Cond,stimuli/Healthy/5.jpg,right,,,,,,,,,,,0,157,157,157,,,,,,,,,,,,,,,,,,,,,,,,,,,,,,,,,,,584.1124831689995,None,584.1124831689995,None,right,1,0.8900123999992502,584.1124831689995,None,1,585.0284833839978,None,,,,,,,,,,,,,,,,,,,,,,,,,,,,,,,,,,,,,,,,,,,,,,,,,,,,,,,,,,,,,,,,,,,10,Female,43,001,2021_Mar_09_2103,cal_abstract,2020.2.4,60.00275940576783,
,Fix1,stimuli/Soft/45.jpg,left,,,,,,,,,,,0,158,158,158,,,,,,,,,,,,,,,,,,,,,,,,,,,,,,,,,,,585.8122486939974,None,585.8122486939974,None,left,1,0.9262597580018337,585.8122486939974,None,1,586.7625784070005,None,,,,,,,,,,,,,,,,,,,,,,,,,,,,,,,,,,,,,,,,,,,,,,,,,,,,,,,,,,,,,,,,,,,10,Female,43,001,2021_Mar_09_2103,cal_abstract,2020.2.4,60.00275940576783,
,Fix2,stimuli/Smell/42.jpg,right,,,,,,,,,,,0,159,159,159,,,,,,,,,,,,,,,,,,,,,,,,,,,,,,,,,,,587.5295162389993,None,587.5295162389993,None,right,1,0.7699760220020835,587.5295162389993,None,1,588.3291762320005,None,,,,,,,,,,,,,,,,,,,,,,,,,,,,,,,,,,,,,,,,,,,,,,,,,,,,,,,,,,,,,,,,,,,10,Female,43,001,2021_Mar_09_2103,cal_abstract,2020.2.4,60.00275940576783,
,Fix2,stimuli/Smell/12.jpg,right,,,,,,,,,,,0,160,160,160,,,,,,,,,,,,,,,,,,,,,,,,,,,,,,,,,,,589.0962444069992,None,589.0962444069992,None,right,1,0.7569553549983539,589.0962444069992,None,1,589.8794683369997,None,,,,,,,,,,,,,,,,,,,,,,,,,,,,,,,,,,,,,,,,,,,,,,,,,,,,,,,,,,,,,,,,,,,10,Female,43,001,2021_Mar_09_2103,cal_abstract,2020.2.4,60.00275940576783,
,Cond,stimuli/Healthy/40.jpg,left,,,,,,,,,,,0,161,161,161,,,,,,,,,,,,,,,,,,,,,,,,,,,,,,,,,,,590.6462065619999,None,590.6462065619999,None,left,1,1.0079856730008032,590.6462065619999,None,1,591.679575238999,None,,,,,,,,,,,,,,,,,,,,,,,,,,,,,,,,,,,,,,,,,,,,,,,,,,,,,,,,,,,,,,,,,,,10,Female,43,001,2021_Mar_09_2103,cal_abstract,2020.2.4,60.00275940576783,
,Fix2,stimuli/Smell/0.jpg,right,,,,,,,,,,,0,162,162,162,,,,,,,,,,,,,,,,,,,,,,,,,,,,,,,,,,,592.4464242089998,None,592.4464242089998,None,right,1,1.542618699997547,592.4464242089998,None,1,594.0132814569988,None,,,,,,,,,,,,,,,,,,,,,,,,,,,,,,,,,,,,,,,,,,,,,,,,,,,,,,,,,,,,,,,,,,,10,Female,43,001,2021_Mar_09_2103,cal_abstract,2020.2.4,60.00275940576783,
,Cond,stimuli/Healthy/48.jpg,left,,,,,,,,,,,0,163,163,163,,,,,,,,,,,,,,,,,,,,,,,,,,,,,,,,,,,594.7797227890005,None,594.7797227890005,None,left,1,1.3241796220027027,594.7797227890005,None,1,596.1299235890001,None,,,,,,,,,,,,,,,,,,,,,,,,,,,,,,,,,,,,,,,,,,,,,,,,,,,,,,,,,,,,,,,,,,,10,Female,43,001,2021_Mar_09_2103,cal_abstract,2020.2.4,60.00275940576783,
,Fix2,stimuli/Smell/10.jpg,right,,,,,,,,,,,0,164,164,164,,,,,,,,,,,,,,,,,,,,,,,,,,,,,,,,,,,596.8967505939981,None,596.8967505939981,None,right,1,0.9398743630008539,596.8967505939981,None,1,597.8634318619988,None,,,,,,,,,,,,,,,,,,,,,,,,,,,,,,,,,,,,,,,,,,,,,,,,,,,,,,,,,,,,,,,,,,,10,Female,43,001,2021_Mar_09_2103,cal_abstract,2020.2.4,60.00275940576783,
,Fix1,stimuli/Soft/53.jpg,left,,,,,,,,,,,0,165,165,165,,,,,,,,,,,,,,,,,,,,,,,,,,,,,,,,,,,598.6463331619998,None,598.6463331619998,None,left,1,0.7573056949986494,598.6463331619998,None,1,599.4299456389999,None,,,,,,,,,,,,,,,,,,,,,,,,,,,,,,,,,,,,,,,,,,,,,,,,,,,,,,,,,,,,,,,,,,,10,Female,43,001,2021_Mar_09_2103,cal_abstract,2020.2.4,60.00275940576783,
,Fix2,stimuli/Smell/55.jpg,right,,,,,,,,,,,0,166,166,166,,,,,,,,,,,,,,,,,,,,,,,,,,,,,,,,,,,600.197125368999,None,600.197125368999,None,right,1,1.1414434029975382,600.197125368999,None,1,601.3635974190001,None,,,,,,,,,,,,,,,,,,,,,,,,,,,,,,,,,,,,,,,,,,,,,,,,,,,,,,,,,,,,,,,,,,,10,Female,43,001,2021_Mar_09_2103,cal_abstract,2020.2.4,60.00275940576783,
,Fix2,stimuli/Smell/53.jpg,right,,,,,,,,,,,0,167,167,167,,,,,,,,,,,,,,,,,,,,,,,,,,,,,,,,,,,602.1306328139981,None,602.1306328139981,None,right,1,1.3268038399983197,602.1306328139981,None,1,603.4800331219994,None,,,,,,,,,,,,,,,,,,,,,,,,,,,,,,,,,,,,,,,,,,,,,,,,,,,,,,,,,,,,,,,,,,,10,Female,43,001,2021_Mar_09_2103,cal_abstract,2020.2.4,60.00275940576783,
,Fix1,stimuli/Soft/36.jpg,left,,,,,,,,,,,0,168,168,168,,,,,,,,,,,,,,,,,,,,,,,,,,,,,,,,,,,604.2471466040006,None,604.2471466040006,None,left,1,2.4129460049989575,604.2471466040006,None,1,606.6794054879974,None,,,,,,,,,,,,,,,,,,,,,,,,,,,,,,,,,,,,,,,,,,,,,,,,,,,,,,,,,,,,,,,,,,,10,Female,43,001,2021_Mar_09_2103,cal_abstract,2020.2.4,60.00275940576783,
,Fix2,stimuli/Smell/14.jpg,right,,,,,,,,,,,0,169,169,169,,,,,,,,,,,,,,,,,,,,,,,,,,,,,,,,,,,607.4473918919975,None,607.4473918919975,None,left,0,7.715013483000803,607.4473918919975,None,0,615.1812301440004,None,,,,,,,,,,,,,,,,,,,,,,,,,,,,,,,,,,,,,,,,,,,,,,,,,,,,,,,,,,,,,,,,,,,10,Female,43,001,2021_Mar_09_2103,cal_abstract,2020.2.4,60.00275940576783,
,Cond,stimuli/Healthy/53.jpg,left,,,,,,,,,,,0,170,170,170,,,,,,,,,,,,,,,,,,,,,,,,,,,,,,,,,,,615.947942431998,None,615.947942431998,None,right,0,3.8466341979983554,615.947942431998,None,0,619.8151649739993,None,,,,,,,,,,,,,,,,,,,,,,,,,,,,,,,,,,,,,,,,,,,,,,,,,,,,,,,,,,,,,,,,,,,10,Female,43,001,2021_Mar_09_2103,cal_abstract,2020.2.4,60.00275940576783,
,Fix2,stimuli/Smell/22.jpg,right,,,,,,,,,,,0,171,171,171,,,,,,,,,,,,,,,,,,,,,,,,,,,,,,,,,,,620.5817089839984,None,620.5817089839984,None,right,1,3.5440411679992394,620.5817089839984,None,1,624.1484914389985,None,,,,,,,,,,,,,,,,,,,,,,,,,,,,,,,,,,,,,,,,,,,,,,,,,,,,,,,,,,,,,,,,,,,10,Female,43,001,2021_Mar_09_2103,cal_abstract,2020.2.4,60.00275940576783,
,Cond,stimuli/Healthy/27.jpg,left,,,,,,,,,,,0,172,172,172,,,,,,,,,,,,,,,,,,,,,,,,,,,,,,,,,,,624.9153308620007,None,624.9153308620007,None,left,1,1.0089630750007927,624.9153308620007,None,1,625.9488673970009,None,,,,,,,,,,,,,,,,,,,,,,,,,,,,,,,,,,,,,,,,,,,,,,,,,,,,,,,,,,,,,,,,,,,10,Female,43,001,2021_Mar_09_2103,cal_abstract,2020.2.4,60.00275940576783,
,Cond,stimuli/Healthy/3.jpg,right,,,,,,,,,,,0,173,173,173,,,,,,,,,,,,,,,,,,,,,,,,,,,,,,,,,,,626.7156801839992,None,626.7156801839992,None,right,1,1.027311155001371,626.7156801839992,None,1,627.7653841739993,None,,,,,,,,,,,,,,,,,,,,,,,,,,,,,,,,,,,,,,,,,,,,,,,,,,,,,,,,,,,,,,,,,,,10,Female,43,001,2021_Mar_09_2103,cal_abstract,2020.2.4,60.00275940576783,
,Cond,stimuli/Healthy/22.jpg,left,,,,,,,,,,,0,174,174,174,,,,,,,,,,,,,,,,,,,,,,,,,,,,,,,,,,,628.5322005119997,None,628.5322005119997,None,left,1,0.8847097670004587,628.5322005119997,None,1,629.4488102869982,None,,,,,,,,,,,,,,,,,,,,,,,,,,,,,,,,,,,,,,,,,,,,,,,,,,,,,,,,,,,,,,,,,,,10,Female,43,001,2021_Mar_09_2103,cal_abstract,2020.2.4,60.00275940576783,
,Fix2,stimuli/Smell/13.jpg,right,,,,,,,,,,,0,175,175,175,,,,,,,,,,,,,,,,,,,,,,,,,,,,,,,,,,,630.231979229,None,630.231979229,None,right,1,0.7439934350004478,630.231979229,None,1,630.9991223689976,None,,,,,,,,,,,,,,,,,,,,,,,,,,,,,,,,,,,,,,,,,,,,,,,,,,,,,,,,,,,,,,,,,,,10,Female,43,001,2021_Mar_09_2103,cal_abstract,2020.2.4,60.00275940576783,
,Cond,stimuli/Healthy/25.jpg,left,,,,,,,,,,,0,176,176,176,,,,,,,,,,,,,,,,,,,,,,,,,,,,,,,,,,,631.7661900089988,None,631.7661900089988,None,left,1,0.8776856799995585,631.7661900089988,None,1,632.6657825969996,None,,,,,,,,,,,,,,,,,,,,,,,,,,,,,,,,,,,,,,,,,,,,,,,,,,,,,,,,,,,,,,,,,,,10,Female,43,001,2021_Mar_09_2103,cal_abstract,2020.2.4,60.00275940576783,
,Fix2,stimuli/Smell/23.jpg,right,,,,,,,,,,,0,177,177,177,,,,,,,,,,,,,,,,,,,,,,,,,,,,,,,,,,,633.4326319539978,None,633.4326319539978,None,right,1,0.8271330719981052,633.4326319539978,None,1,634.2825462219989,None,,,,,,,,,,,,,,,,,,,,,,,,,,,,,,,,,,,,,,,,,,,,,,,,,,,,,,,,,,,,,,,,,,,10,Female,43,001,2021_Mar_09_2103,cal_abstract,2020.2.4,60.00275940576783,
,Fix1,stimuli/Soft/5.jpg,left,,,,,,,,,,,0,178,178,178,,,,,,,,,,,,,,,,,,,,,,,,,,,,,,,,,,,635.0493065289993,None,635.0493065289993,None,left,1,1.3723439450004662,635.0493065289993,None,1,636.4492837020007,None,,,,,,,,,,,,,,,,,,,,,,,,,,,,,,,,,,,,,,,,,,,,,,,,,,,,,,,,,,,,,,,,,,,10,Female,43,001,2021_Mar_09_2103,cal_abstract,2020.2.4,60.00275940576783,
,Fix1,stimuli/Soft/2.jpg,left,,,,,,,,,,,0,179,179,179,,,,,,,,,,,,,,,,,,,,,,,,,,,,,,,,,,,637.2163556890009,None,637.2163556890009,None,left,1,0.8951923649983655,637.2163556890009,None,1,638.1327280269979,None,,,,,,,,,,,,,,,,,,,,,,,,,,,,,,,,,,,,,,,,,,,,,,,,,,,,,,,,,,,,,,,,,,,10,Female,43,001,2021_Mar_09_2103,cal_abstract,2020.2.4,60.00275940576783,
,,,,,,,,,,,,,,,,,,,,,,,,,,,,,,,,,,,,,,,,,,,,,,,,,,,,,,,,,,,,,,,,638.882898636999,None,c,3.3570144479999726,638.882898636999,None,,,,,,,,,,,,,,,,,,,,,,,,,,,,,,,,,,,,,,,,,,,,,,,,,,,,,,,,,,,,,10,Female,43,001,2021_Mar_09_2103,cal_abstract,2020.2.4,60.00275940576783,
,,,,,,,,,,,,,,,,,,,,,,,,,,,,,,,,,,,,,,,,,,,,,,,,,,,,,,,,,,,,,,,,,,,,,,642.2663676169977,None,642.2663676169977,None,return,2.6883123080006044,642.2663676169977,None,,,,,,,,,,,,,,,,,,,,,,,,,,,,,,,,,,,,,,,,,,,,,,,,,,,,,10,Female,43,001,2021_Mar_09_2103,cal_abstract,2020.2.4,60.00275940576783,
,,,,,,,,,,,,,,,,,,,,,,,,,,,,,,,,,,,,,,,,,,,,,,,,,,,,,,,,,,,,,,,,,,,,,,,,,,,,,,644.9833381370008,None,644.9833381370008,None,s,3.5814432999977726,644.9833381370008,None,,,,,,,,,,,,,,,,,,,,,,,,,,,,,,,,,,,,,,,,,,,,,10,Female,43,001,2021_Mar_09_2103,cal_abstract,2020.2.4,60.00275940576783,
,,,,Fix2,stimuli/Small/17.jpg,left,,,,,,,,,,,,0,0,0,0,,,,,,,,,,,,,,,,,,,,,,,,,,,,,,,,,,,,,,,,0,,,,,,,,,,,,,,,,,,,,,,,,,648.6170219239975,None,648.6170219239975,None,right,0,4.975122845000442,648.6170219239975,None,653.6169355370002,None,,,,,,,,,,,,,,,,,,,,,,,,,,,,,,,,,,10,Female,43,001,2021_Mar_09_2103,cal_abstract,2020.2.4,60.00275940576783,
,,,,Fix2,stimuli/Small/39.jpg,left,,,,,,,,,,,,0,1,1,1,,,,,,,,,,,,,,,,,,,,,,,,,,,,,,,,,,,,,,,,1,,,,,,,,,,,,,,,,,,,,,,,,,654.3840381269983,None,654.3840381269983,None,left,1,2.5918844420011737,654.3840381269983,None,657.0007162619986,None,,,,,,,,,,,,,,,,,,,,,,,,,,,,,,,,,,10,Female,43,001,2021_Mar_09_2103,cal_abstract,2020.2.4,60.00275940576783,
,,,,Cond,stimuli/Sad/21.jpg,right,,,,,,,,,,,,0,2,2,2,,,,,,,,,,,,,,,,,,,,,,,,,,,,,,,,,,,,,,,,1,,,,,,,,,,,,,,,,,,,,,,,,,657.7675516519994,None,657.7675516519994,None,right,1,2.9972341930006223,657.7675516519994,None,660.7842700420006,None,,,,,,,,,,,,,,,,,,,,,,,,,,,,,,,,,,10,Female,43,001,2021_Mar_09_2103,cal_abstract,2020.2.4,60.00275940576783,
,,,,Cond,stimuli/Sad/15.jpg,left,,,,,,,,,,,,0,3,3,3,,,,,,,,,,,,,,,,,,,,,,,,,,,,,,,,,,,,,,,,1,,,,,,,,,,,,,,,,,,,,,,,,,661.551180642,None,661.551180642,None,left,1,5.461505218001548,661.551180642,None,667.034748782,None,,,,,,,,,,,,,,,,,,,,,,,,,,,,,,,,,,10,Female,43,001,2021_Mar_09_2103,cal_abstract,2020.2.4,60.00275940576783,
,,,,Fix1,stimuli/Old/49.jpg,right,,,,,,,,,,,,0,4,4,4,,,,,,,,,,,,,,,,,,,,,,,,,,,,,,,,,,,,,,,,1,,,,,,,,,,,,,,,,,,,,,,,,,667.8014429939976,None,667.8014429939976,None,right,1,1.9962849549992825,667.8014429939976,None,669.8182173370005,None,,,,,,,,,,,,,,,,,,,,,,,,,,,,,,,,,,10,Female,43,001,2021_Mar_09_2103,cal_abstract,2020.2.4,60.00275940576783,
,,,,Cond,stimuli/Sad/51.jpg,left,,,,,,,,,,,,0,5,5,5,,,,,,,,,,,,,,,,,,,,,,,,,,,,,,,,,,,,,,,,1,,,,,,,,,,,,,,,,,,,,,,,,,670.5853033169988,None,670.5853033169988,None,left,1,1.6223720200032403,670.5853033169988,None,672.2351639839981,None,,,,,,,,,,,,,,,,,,,,,,,,,,,,,,,,,,10,Female,43,001,2021_Mar_09_2103,cal_abstract,2020.2.4,60.00275940576783,
,,,,Fix1,stimuli/Old/9.jpg,right,,,,,,,,,,,,0,6,6,6,,,,,,,,,,,,,,,,,,,,,,,,,,,,,,,,,,,,,,,,0,,,,,,,,,,,,,,,,,,,,,,,,,673.0018650790007,None,673.0018650790007,None,left,0,2.9895088800003577,673.0018650790007,None,676.0187361370008,None,,,,,,,,,,,,,,,,,,,,,,,,,,,,,,,,,,10,Female,43,001,2021_Mar_09_2103,cal_abstract,2020.2.4,60.00275940576783,
,,,,Cond,stimuli/Sad/7.jpg,left,,,,,,,,,,,,0,7,7,7,,,,,,,,,,,,,,,,,,,,,,,,,,,,,,,,,,,,,,,,0,,,,,,,,,,,,,,,,,,,,,,,,,676.785548718999,None,676.785548718999,None,right,0,2.4871876149991294,676.785548718999,None,679.3019459839998,None,,,,,,,,,,,,,,,,,,,,,,,,,,,,,,,,,,10,Female,43,001,2021_Mar_09_2103,cal_abstract,2020.2.4,60.00275940576783,
,,,,Cond,stimuli/Sad/31.jpg,right,,,,,,,,,,,,0,8,8,8,,,,,,,,,,,,,,,,,,,,,,,,,,,,,,,,,,,,,,,,0,,,,,,,,,,,,,,,,,,,,,,,,,680.0691262389992,None,680.0691262389992,None,left,0,2.6829397520014027,680.0691262389992,None,682.7691212389982,None,,,,,,,,,,,,,,,,,,,,,,,,,,,,,,,,,,10,Female,43,001,2021_Mar_09_2103,cal_abstract,2020.2.4,60.00275940576783,
,,,,Cond,stimuli/Sad/54.jpg,left,,,,,,,,,,,,0,9,9,9,,,,,,,,,,,,,,,,,,,,,,,,,,,,,,,,,,,,,,,,0,,,,,,,,,,,,,,,,,,,,,,,,,683.5361014089976,None,683.5361014089976,None,right,0,0.9248172449988488,683.5361014089976,None,684.4859462339991,None,,,,,,,,,,,,,,,,,,,,,,,,,,,,,,,,,,10,Female,43,001,2021_Mar_09_2103,cal_abstract,2020.2.4,60.00275940576783,
,,,,Fix1,stimuli/Old/26.jpg,right,,,,,,,,,,,,0,10,10,10,,,,,,,,,,,,,,,,,,,,,,,,,,,,,,,,,,,,,,,,0,,,,,,,,,,,,,,,,,,,,,,,,,685.2522482690001,None,685.2522482690001,None,left,0,0.221619539999665,685.2522482690001,None,685.5023647339985,None,,,,,,,,,,,,,,,,,,,,,,,,,,,,,,,,,,10,Female,43,001,2021_Mar_09_2103,cal_abstract,2020.2.4,60.00275940576783,
,,,,Fix2,stimuli/Small/22.jpg,left,,,,,,,,,,,,0,11,11,11,,,,,,,,,,,,,,,,,,,,,,,,,,,,,,,,,,,,,,,,0,,,,,,,,,,,,,,,,,,,,,,,,,686.2684172939989,None,686.2684172939989,None,right,0,2.6520780120008567,686.2684172939989,None,688.9529567669997,None,,,,,,,,,,,,,,,,,,,,,,,,,,,,,,,,,,10,Female,43,001,2021_Mar_09_2103,cal_abstract,2020.2.4,60.00275940576783,
,,,,Fix2,stimuli/Small/4.jpg,left,,,,,,,,,,,,0,12,12,12,,,,,,,,,,,,,,,,,,,,,,,,,,,,,,,,,,,,,,,,0,,,,,,,,,,,,,,,,,,,,,,,,,689.7197771819992,None,689.7197771819992,None,right,0,3.1841345530010585,689.7197771819992,None,692.9363888320004,None,,,,,,,,,,,,,,,,,,,,,,,,,,,,,,,,,,10,Female,43,001,2021_Mar_09_2103,cal_abstract,2020.2.4,60.00275940576783,
,,,,Cond,stimuli/Sad/16.jpg,right,,,,,,,,,,,,0,13,13,13,,,,,,,,,,,,,,,,,,,,,,,,,,,,,,,,,,,,,,,,0,,,,,,,,,,,,,,,,,,,,,,,,,693.703665451998,None,693.703665451998,None,left,0,5.450156571998377,693.703665451998,None,699.1870807569976,None,,,,,,,,,,,,,,,,,,,,,,,,,,,,,,,,,,10,Female,43,001,2021_Mar_09_2103,cal_abstract,2020.2.4,60.00275940576783,
,,,,Fix2,stimuli/Small/48.jpg,left,,,,,,,,,,,,0,14,14,14,,,,,,,,,,,,,,,,,,,,,,,,,,,,,,,,,,,,,,,,0,,,,,,,,,,,,,,,,,,,,,,,,,699.9537913639979,None,699.9537913639979,None,right,0,2.487498599999526,699.9537913639979,None,702.4707567139994,None,,,,,,,,,,,,,,,,,,,,,,,,,,,,,,,,,,10,Female,43,001,2021_Mar_09_2103,cal_abstract,2020.2.4,60.00275940576783,
,,,,Fix1,stimuli/Old/15.jpg,right,,,,,,,,,,,,0,15,15,15,,,,,,,,,,,,,,,,,,,,,,,,,,,,,,,,,,,,,,,,0,,,,,,,,,,,,,,,,,,,,,,,,,703.2375436369985,None,703.2375436369985,None,left,0,1.390582413001539,703.2375436369985,None,704.653975874,None,,,,,,,,,,,,,,,,,,,,,,,,,,,,,,,,,,10,Female,43,001,2021_Mar_09_2103,cal_abstract,2020.2.4,60.00275940576783,
,,,,Cond,stimuli/Sad/27.jpg,left,,,,,,,,,,,,0,16,16,16,,,,,,,,,,,,,,,,,,,,,,,,,,,,,,,,,,,,,,,,0,,,,,,,,,,,,,,,,,,,,,,,,,705.4209966419985,None,705.4209966419985,None,right,0,5.150844897998468,705.4209966419985,None,710.6043273340001,None,,,,,,,,,,,,,,,,,,,,,,,,,,,,,,,,,,10,Female,43,001,2021_Mar_09_2103,cal_abstract,2020.2.4,60.00275940576783,
,,,,Cond,stimuli/Sad/17.jpg,right,,,,,,,,,,,,0,17,17,17,,,,,,,,,,,,,,,,,,,,,,,,,,,,,,,,,,,,,,,,0,,,,,,,,,,,,,,,,,,,,,,,,,711.3710627239998,None,711.3710627239998,None,left,0,1.7098436519991083,711.3710627239998,None,713.1040564119976,None,,,,,,,,,,,,,,,,,,,,,,,,,,,,,,,,,,10,Female,43,001,2021_Mar_09_2103,cal_abstract,2020.2.4,60.00275940576783,
,,,,Cond,stimuli/Sad/42.jpg,left,,,,,,,,,,,,0,18,18,18,,,,,,,,,,,,,,,,,,,,,,,,,,,,,,,,,,,,,,,,1,,,,,,,,,,,,,,,,,,,,,,,,,713.8714372920003,None,713.8714372920003,None,left,1,2.388452821996907,713.8714372920003,None,716.2872687880008,None,,,,,,,,,,,,,,,,,,,,,,,,,,,,,,,,,,10,Female,43,001,2021_Mar_09_2103,cal_abstract,2020.2.4,60.00275940576783,
,,,,Fix1,stimuli/Old/52.jpg,right,,,,,,,,,,,,0,19,19,19,,,,,,,,,,,,,,,,,,,,,,,,,,,,,,,,,,,,,,,,1,,,,,,,,,,,,,,,,,,,,,,,,,717.0549658470009,None,717.0549658470009,None,right,1,6.726689205002913,717.0549658470009,None,723.8051699370008,None,,,,,,,,,,,,,,,,,,,,,,,,,,,,,,,,,,10,Female,43,001,2021_Mar_09_2103,cal_abstract,2020.2.4,60.00275940576783,
,,,,Cond,stimuli/Sad/59.jpg,left,,,,,,,,,,,,0,20,20,20,,,,,,,,,,,,,,,,,,,,,,,,,,,,,,,,,,,,,,,,1,,,,,,,,,,,,,,,,,,,,,,,,,724.5721959969997,None,724.5721959969997,None,left,1,0.9821605320030358,724.5721959969997,None,725.5716267069984,None,,,,,,,,,,,,,,,,,,,,,,,,,,,,,,,,,,10,Female,43,001,2021_Mar_09_2103,cal_abstract,2020.2.4,60.00275940576783,
,,,,Cond,stimuli/Sad/52.jpg,right,,,,,,,,,,,,0,21,21,21,,,,,,,,,,,,,,,,,,,,,,,,,,,,,,,,,,,,,,,,0,,,,,,,,,,,,,,,,,,,,,,,,,726.3386556240002,None,726.3386556240002,None,left,0,1.000567052000406,726.3386556240002,None,727.3554113739992,None,,,,,,,,,,,,,,,,,,,,,,,,,,,,,,,,,,10,Female,43,001,2021_Mar_09_2103,cal_abstract,2020.2.4,60.00275940576783,
,,,,Fix2,stimuli/Small/16.jpg,left,,,,,,,,,,,,0,22,22,22,,,,,,,,,,,,,,,,,,,,,,,,,,,,,,,,,,,,,,,,0,,,,,,,,,,,,,,,,,,,,,,,,,728.1226559389979,None,728.1226559389979,None,right,0,6.434011810000811,728.1226559389979,None,734.589396157,None,,,,,,,,,,,,,,,,,,,,,,,,,,,,,,,,,,10,Female,43,001,2021_Mar_09_2103,cal_abstract,2020.2.4,60.00275940576783,
,,,,Fix1,stimuli/Old/10.jpg,right,,,,,,,,,,,,0,23,23,23,,,,,,,,,,,,,,,,,,,,,,,,,,,,,,,,,,,,,,,,1,,,,,,,,,,,,,,,,,,,,,,,,,735.3562724740004,None,735.3562724740004,None,right,1,1.4119529600029637,735.3562724740004,None,736.789527298999,None,,,,,,,,,,,,,,,,,,,,,,,,,,,,,,,,,,10,Female,43,001,2021_Mar_09_2103,cal_abstract,2020.2.4,60.00275940576783,
,,,,Fix1,stimuli/Old/59.jpg,right,,,,,,,,,,,,0,24,24,24,,,,,,,,,,,,,,,,,,,,,,,,,,,,,,,,,,,,,,,,1,,,,,,,,,,,,,,,,,,,,,,,,,737.5563606989999,None,737.5563606989999,None,right,1,0.6979294349985139,737.5563606989999,None,738.2730859119984,None,,,,,,,,,,,,,,,,,,,,,,,,,,,,,,,,,,10,Female,43,001,2021_Mar_09_2103,cal_abstract,2020.2.4,60.00275940576783,
,,,,Fix1,stimuli/Old/32.jpg,right,,,,,,,,,,,,0,25,25,25,,,,,,,,,,,,,,,,,,,,,,,,,,,,,,,,,,,,,,,,1,,,,,,,,,,,,,,,,,,,,,,,,,739.0399247839996,None,739.0399247839996,None,right,1,0.7090847799991025,739.0399247839996,None,739.7729380319979,None,,,,,,,,,,,,,,,,,,,,,,,,,,,,,,,,,,10,Female,43,001,2021_Mar_09_2103,cal_abstract,2020.2.4,60.00275940576783,
,,,,Fix2,stimuli/Small/9.jpg,left,,,,,,,,,,,,0,26,26,26,,,,,,,,,,,,,,,,,,,,,,,,,,,,,,,,,,,,,,,,1,,,,,,,,,,,,,,,,,,,,,,,,,740.540015221999,None,740.540015221999,None,left,1,4.682471894997434,740.540015221999,None,745.2400944619985,None,,,,,,,,,,,,,,,,,,,,,,,,,,,,,,,,,,10,Female,43,001,2021_Mar_09_2103,cal_abstract,2020.2.4,60.00275940576783,
,,,,Fix2,stimuli/Small/47.jpg,left,,,,,,,,,,,,0,27,27,27,,,,,,,,,,,,,,,,,,,,,,,,,,,,,,,,,,,,,,,,0,,,,,,,,,,,,,,,,,,,,,,,,,746.0071810769987,None,746.0071810769987,None,right,0,1.9872647150004923,746.0071810769987,None,748.0235970270005,None,,,,,,,,,,,,,,,,,,,,,,,,,,,,,,,,,,10,Female,43,001,2021_Mar_09_2103,cal_abstract,2020.2.4,60.00275940576783,
,,,,Fix1,stimuli/Old/43.jpg,right,,,,,,,,,,,,0,28,28,28,,,,,,,,,,,,,,,,,,,,,,,,,,,,,,,,,,,,,,,,1,,,,,,,,,,,,,,,,,,,,,,,,,748.790500092,None,748.790500092,None,right,1,0.9778157549990283,748.790500092,None,749.7905427490005,None,,,,,,,,,,,,,,,,,,,,,,,,,,,,,,,,,,10,Female,43,001,2021_Mar_09_2103,cal_abstract,2020.2.4,60.00275940576783,
,,,,Fix2,stimuli/Small/19.jpg,left,,,,,,,,,,,,0,29,29,29,,,,,,,,,,,,,,,,,,,,,,,,,,,,,,,,,,,,,,,,0,,,,,,,,,,,,,,,,,,,,,,,,,750.5572848039992,None,750.5572848039992,None,right,0,0.99391593999826,750.5572848039992,None,751.5739159219993,None,,,,,,,,,,,,,,,,,,,,,,,,,,,,,,,,,,10,Female,43,001,2021_Mar_09_2103,cal_abstract,2020.2.4,60.00275940576783,
,,,,Cond,stimuli/Sad/47.jpg,right,,,,,,,,,,,,0,30,30,30,,,,,,,,,,,,,,,,,,,,,,,,,,,,,,,,,,,,,,,,0,,,,,,,,,,,,,,,,,,,,,,,,,752.3408971239987,None,752.3408971239987,None,left,0,1.082251707000978,752.3408971239987,None,753.4408960019973,None,,,,,,,,,,,,,,,,,,,,,,,,,,,,,,,,,,10,Female,43,001,2021_Mar_09_2103,cal_abstract,2020.2.4,60.00275940576783,
,,,,Cond,stimuli/Sad/0.jpg,left,,,,,,,,,,,,0,31,31,31,,,,,,,,,,,,,,,,,,,,,,,,,,,,,,,,,,,,,,,,1,,,,,,,,,,,,,,,,,,,,,,,,,754.2075552089991,None,754.2075552089991,None,left,1,0.8414281500008656,754.2075552089991,None,755.0741811439984,None,,,,,,,,,,,,,,,,,,,,,,,,,,,,,,,,,,10,Female,43,001,2021_Mar_09_2103,cal_abstract,2020.2.4,60.00275940576783,
,,,,Fix1,stimuli/Old/20.jpg,right,,,,,,,,,,,,0,32,32,32,,,,,,,,,,,,,,,,,,,,,,,,,,,,,,,,,,,,,,,,1,,,,,,,,,,,,,,,,,,,,,,,,,755.8416420889989,None,755.8416420889989,None,right,1,0.9461705530011386,755.8416420889989,None,756.8075972089973,None,,,,,,,,,,,,,,,,,,,,,,,,,,,,,,,,,,10,Female,43,001,2021_Mar_09_2103,cal_abstract,2020.2.4,60.00275940576783,
,,,,Fix2,stimuli/Small/45.jpg,left,,,,,,,,,,,,0,33,33,33,,,,,,,,,,,,,,,,,,,,,,,,,,,,,,,,,,,,,,,,1,,,,,,,,,,,,,,,,,,,,,,,,,757.5744698919989,None,757.5744698919989,None,left,1,8.11562749299992,757.5744698919989,None,765.7082050639983,None,,,,,,,,,,,,,,,,,,,,,,,,,,,,,,,,,,10,Female,43,001,2021_Mar_09_2103,cal_abstract,2020.2.4,60.00275940576783,
,,,,Fix1,stimuli/Old/54.jpg,right,,,,,,,,,,,,0,34,34,34,,,,,,,,,,,,,,,,,,,,,,,,,,,,,,,,,,,,,,,,1,,,,,,,,,,,,,,,,,,,,,,,,,766.4749328439975,None,766.4749328439975,None,right,1,0.8174613219998719,766.4749328439975,None,767.3249978870008,None,,,,,,,,,,,,,,,,,,,,,,,,,,,,,,,,,,10,Female,43,001,2021_Mar_09_2103,cal_abstract,2020.2.4,60.00275940576783,
,,,,Cond,stimuli/Sad/48.jpg,left,,,,,,,,,,,,0,35,35,35,,,,,,,,,,,,,,,,,,,,,,,,,,,,,,,,,,,,,,,,1,,,,,,,,,,,,,,,,,,,,,,,,,768.0917518690003,None,768.0917518690003,None,left,1,1.103749339999922,768.0917518690003,None,769.2251314040004,None,,,,,,,,,,,,,,,,,,,,,,,,,,,,,,,,,,10,Female,43,001,2021_Mar_09_2103,cal_abstract,2020.2.4,60.00275940576783,
,,,,Fix1,stimuli/Old/41.jpg,right,,,,,,,,,,,,0,36,36,36,,,,,,,,,,,,,,,,,,,,,,,,,,,,,,,,,,,,,,,,1,,,,,,,,,,,,,,,,,,,,,,,,,769.9919118069993,None,769.9919118069993,None,right,1,0.9324726769991685,769.9919118069993,None,770.941913188999,None,,,,,,,,,,,,,,,,,,,,,,,,,,,,,,,,,,10,Female,43,001,2021_Mar_09_2103,cal_abstract,2020.2.4,60.00275940576783,
,,,,Fix1,stimuli/Old/29.jpg,right,,,,,,,,,,,,0,37,37,37,,,,,,,,,,,,,,,,,,,,,,,,,,,,,,,,,,,,,,,,1,,,,,,,,,,,,,,,,,,,,,,,,,771.7105919469977,None,771.7105919469977,None,right,1,1.1746132979969843,771.7105919469977,None,772.9087585169982,None,,,,,,,,,,,,,,,,,,,,,,,,,,,,,,,,,,10,Female,43,001,2021_Mar_09_2103,cal_abstract,2020.2.4,60.00275940576783,
,,,,Fix1,stimuli/Old/30.jpg,right,,,,,,,,,,,,0,38,38,38,,,,,,,,,,,,,,,,,,,,,,,,,,,,,,,,,,,,,,,,1,,,,,,,,,,,,,,,,,,,,,,,,,773.6756592589991,None,773.6756592589991,None,right,1,1.0463223280021339,773.6756592589991,None,774.7422363320002,None,,,,,,,,,,,,,,,,,,,,,,,,,,,,,,,,,,10,Female,43,001,2021_Mar_09_2103,cal_abstract,2020.2.4,60.00275940576783,
,,,,Fix1,stimuli/Old/44.jpg,right,,,,,,,,,,,,0,39,39,39,,,,,,,,,,,,,,,,,,,,,,,,,,,,,,,,,,,,,,,,0,,,,,,,,,,,,,,,,,,,,,,,,,775.5088432589982,None,775.5088432589982,None,left,0,2.9750036149998778,775.5088432589982,None,778.5089499839996,None,,,,,,,,,,,,,,,,,,,,,,,,,,,,,,,,,,10,Female,43,001,2021_Mar_09_2103,cal_abstract,2020.2.4,60.00275940576783,
,,,,Cond,stimuli/Sad/26.jpg,left,,,,,,,,,,,,0,40,40,40,,,,,,,,,,,,,,,,,,,,,,,,,,,,,,,,,,,,,,,,1,,,,,,,,,,,,,,,,,,,,,,,,,779.2759887819993,None,779.2759887819993,None,left,1,3.5602483229995414,779.2759887819993,None,782.8595001369977,None,,,,,,,,,,,,,,,,,,,,,,,,,,,,,,,,,,10,Female,43,001,2021_Mar_09_2103,cal_abstract,2020.2.4,60.00275940576783,
,,,,Cond,stimuli/Sad/40.jpg,right,,,,,,,,,,,,0,41,41,41,,,,,,,,,,,,,,,,,,,,,,,,,,,,,,,,,,,,,,,,0,,,,,,,,,,,,,,,,,,,,,,,,,783.6264621089977,None,783.6264621089977,None,left,0,1.577070499999536,783.6264621089977,None,785.2262521169978,None,,,,,,,,,,,,,,,,,,,,,,,,,,,,,,,,,,10,Female,43,001,2021_Mar_09_2103,cal_abstract,2020.2.4,60.00275940576783,
,,,,Cond,stimuli/Sad/36.jpg,left,,,,,,,,,,,,0,42,42,42,,,,,,,,,,,,,,,,,,,,,,,,,,,,,,,,,,,,,,,,1,,,,,,,,,,,,,,,,,,,,,,,,,785.9930300289998,None,785.9930300289998,None,left,1,0.9784135949994379,785.9930300289998,None,786.9929705989998,None,,,,,,,,,,,,,,,,,,,,,,,,,,,,,,,,,,10,Female,43,001,2021_Mar_09_2103,cal_abstract,2020.2.4,60.00275940576783,
,,,,Cond,stimuli/Sad/8.jpg,right,,,,,,,,,,,,0,43,43,43,,,,,,,,,,,,,,,,,,,,,,,,,,,,,,,,,,,,,,,,0,,,,,,,,,,,,,,,,,,,,,,,,,787.7599193839997,None,787.7599193839997,None,left,0,1.029315158000827,787.7599193839997,None,788.8098390819978,None,,,,,,,,,,,,,,,,,,,,,,,,,,,,,,,,,,10,Female,43,001,2021_Mar_09_2103,cal_abstract,2020.2.4,60.00275940576783,
,,,,Fix2,stimuli/Small/23.jpg,left,,,,,,,,,,,,0,44,44,44,,,,,,,,,,,,,,,,,,,,,,,,,,,,,,,,,,,,,,,,1,,,,,,,,,,,,,,,,,,,,,,,,,789.5766159119994,None,789.5766159119994,None,left,1,2.17342809800175,789.5766159119994,None,791.7764510419984,None,,,,,,,,,,,,,,,,,,,,,,,,,,,,,,,,,,10,Female,43,001,2021_Mar_09_2103,cal_abstract,2020.2.4,60.00275940576783,
,,,,Fix2,stimuli/Small/49.jpg,left,,,,,,,,,,,,0,45,45,45,,,,,,,,,,,,,,,,,,,,,,,,,,,,,,,,,,,,,,,,0,,,,,,,,,,,,,,,,,,,,,,,,,792.543554863998,None,792.543554863998,None,right,0,8.359646536999207,792.543554863998,None,800.9273291919999,None,,,,,,,,,,,,,,,,,,,,,,,,,,,,,,,,,,10,Female,43,001,2021_Mar_09_2103,cal_abstract,2020.2.4,60.00275940576783,
,,,,Fix1,stimuli/Old/58.jpg,right,,,,,,,,,,,,0,46,46,46,,,,,,,,,,,,,,,,,,,,,,,,,,,,,,,,,,,,,,,,1,,,,,,,,,,,,,,,,,,,,,,,,,801.6942972920006,None,801.6942972920006,None,right,1,0.8916463850000582,801.6942972920006,None,802.6106186219986,None,,,,,,,,,,,,,,,,,,,,,,,,,,,,,,,,,,10,Female,43,001,2021_Mar_09_2103,cal_abstract,2020.2.4,60.00275940576783,
,,,,Fix1,stimuli/Old/57.jpg,right,,,,,,,,,,,,0,47,47,47,,,,,,,,,,,,,,,,,,,,,,,,,,,,,,,,,,,,,,,,1,,,,,,,,,,,,,,,,,,,,,,,,,803.3780087419982,None,803.3780087419982,None,right,1,0.9478278669994324,803.3780087419982,None,804.3440902869988,None,,,,,,,,,,,,,,,,,,,,,,,,,,,,,,,,,,10,Female,43,001,2021_Mar_09_2103,cal_abstract,2020.2.4,60.00275940576783,
,,,,Fix1,stimuli/Old/4.jpg,right,,,,,,,,,,,,0,48,48,48,,,,,,,,,,,,,,,,,,,,,,,,,,,,,,,,,,,,,,,,1,,,,,,,,,,,,,,,,,,,,,,,,,805.1111364719982,None,805.1111364719982,None,right,1,1.0905729129990505,805.1111364719982,None,806.2278515789985,None,,,,,,,,,,,,,,,,,,,,,,,,,,,,,,,,,,10,Female,43,001,2021_Mar_09_2103,cal_abstract,2020.2.4,60.00275940576783,
,,,,Cond,stimuli/Sad/39.jpg,left,,,,,,,,,,,,0,49,49,49,,,,,,,,,,,,,,,,,,,,,,,,,,,,,,,,,,,,,,,,1,,,,,,,,,,,,,,,,,,,,,,,,,807.0114634540005,None,807.0114634540005,None,left,1,1.8619266899986542,807.0114634540005,None,808.8945070570007,None,,,,,,,,,,,,,,,,,,,,,,,,,,,,,,,,,,10,Female,43,001,2021_Mar_09_2103,cal_abstract,2020.2.4,60.00275940576783,
,,,,Fix2,stimuli/Small/50.jpg,left,,,,,,,,,,,,0,50,50,50,,,,,,,,,,,,,,,,,,,,,,,,,,,,,,,,,,,,,,,,0,,,,,,,,,,,,,,,,,,,,,,,,,809.6614709819987,None,809.6614709819987,None,right,0,1.0360270279998076,809.6614709819987,None,810.7279889439997,None,,,,,,,,,,,,,,,,,,,,,,,,,,,,,,,,,,10,Female,43,001,2021_Mar_09_2103,cal_abstract,2020.2.4,60.00275940576783,
,,,,Fix1,stimuli/Old/1.jpg,right,,,,,,,,,,,,0,51,51,51,,,,,,,,,,,,,,,,,,,,,,,,,,,,,,,,,,,,,,,,1,,,,,,,,,,,,,,,,,,,,,,,,,811.4948382420007,None,811.4948382420007,None,right,1,2.025395534998097,811.4948382420007,None,813.5450607669991,None,,,,,,,,,,,,,,,,,,,,,,,,,,,,,,,,,,10,Female,43,001,2021_Mar_09_2103,cal_abstract,2020.2.4,60.00275940576783,
,,,,Fix1,stimuli/Old/0.jpg,right,,,,,,,,,,,,0,52,52,52,,,,,,,,,,,,,,,,,,,,,,,,,,,,,,,,,,,,,,,,1,,,,,,,,,,,,,,,,,,,,,,,,,814.3117211589997,None,814.3117211589997,None,right,1,0.8404229700026917,814.3117211589997,None,815.1783740419996,None,,,,,,,,,,,,,,,,,,,,,,,,,,,,,,,,,,10,Female,43,001,2021_Mar_09_2103,cal_abstract,2020.2.4,60.00275940576783,
,,,,Cond,stimuli/Sad/5.jpg,left,,,,,,,,,,,,0,53,53,53,,,,,,,,,,,,,,,,,,,,,,,,,,,,,,,,,,,,,,,,1,,,,,,,,,,,,,,,,,,,,,,,,,815.9451027670002,None,815.9451027670002,None,left,1,1.0277233429987973,815.9451027670002,None,816.9938477369979,None,,,,,,,,,,,,,,,,,,,,,,,,,,,,,,,,,,10,Female,43,001,2021_Mar_09_2103,cal_abstract,2020.2.4,60.00275940576783,
,,,,Cond,stimuli/Sad/49.jpg,right,,,,,,,,,,,,0,54,54,54,,,,,,,,,,,,,,,,,,,,,,,,,,,,,,,,,,,,,,,,0,,,,,,,,,,,,,,,,,,,,,,,,,817.7606810629986,None,817.7606810629986,None,left,0,1.5221936559973983,817.7606810629986,None,819.310901285,None,,,,,,,,,,,,,,,,,,,,,,,,,,,,,,,,,,10,Female,43,001,2021_Mar_09_2103,cal_abstract,2020.2.4,60.00275940576783,
,,,,Fix1,stimuli/Old/34.jpg,right,,,,,,,,,,,,0,55,55,55,,,,,,,,,,,,,,,,,,,,,,,,,,,,,,,,,,,,,,,,1,,,,,,,,,,,,,,,,,,,,,,,,,820.0786173239976,None,820.0786173239976,None,right,1,2.7161505069998384,820.0786173239976,None,822.8119285520006,None,,,,,,,,,,,,,,,,,,,,,,,,,,,,,,,,,,10,Female,43,001,2021_Mar_09_2103,cal_abstract,2020.2.4,60.00275940576783,
,,,,Fix1,stimuli/Old/12.jpg,right,,,,,,,,,,,,0,56,56,56,,,,,,,,,,,,,,,,,,,,,,,,,,,,,,,,,,,,,,,,1,,,,,,,,,,,,,,,,,,,,,,,,,823.5789114219988,None,823.5789114219988,None,right,1,0.718491774998256,823.5789114219988,None,824.3283965989976,None,,,,,,,,,,,,,,,,,,,,,,,,,,,,,,,,,,10,Female,43,001,2021_Mar_09_2103,cal_abstract,2020.2.4,60.00275940576783,
,,,,Fix2,stimuli/Small/7.jpg,left,,,,,,,,,,,,0,57,57,57,,,,,,,,,,,,,,,,,,,,,,,,,,,,,,,,,,,,,,,,1,,,,,,,,,,,,,,,,,,,,,,,,,825.0959195289979,None,825.0959195289979,None,left,1,11.316165195999929,825.0959195289979,None,836.4296744089988,None,,,,,,,,,,,,,,,,,,,,,,,,,,,,,,,,,,10,Female,43,001,2021_Mar_09_2103,cal_abstract,2020.2.4,60.00275940576783,
,,,,Fix1,stimuli/Old/50.jpg,right,,,,,,,,,,,,0,58,58,58,,,,,,,,,,,,,,,,,,,,,,,,,,,,,,,,,,,,,,,,1,,,,,,,,,,,,,,,,,,,,,,,,,837.1966266719974,None,837.1966266719974,None,right,1,0.833725067001069,837.1966266719974,None,838.0630847119974,None,,,,,,,,,,,,,,,,,,,,,,,,,,,,,,,,,,10,Female,43,001,2021_Mar_09_2103,cal_abstract,2020.2.4,60.00275940576783,
,,,,Fix2,stimuli/Small/2.jpg,left,,,,,,,,,,,,0,59,59,59,,,,,,,,,,,,,,,,,,,,,,,,,,,,,,,,,,,,,,,,0,,,,,,,,,,,,,,,,,,,,,,,,,838.8303277970008,None,838.8303277970008,None,right,0,2.77817117000086,838.8303277970008,None,841.6300321039998,None,,,,,,,,,,,,,,,,,,,,,,,,,,,,,,,,,,10,Female,43,001,2021_Mar_09_2103,cal_abstract,2020.2.4,60.00275940576783,
,,,,Fix1,stimuli/Old/48.jpg,right,,,,,,,,,,,,0,60,60,60,,,,,,,,,,,,,,,,,,,,,,,,,,,,,,,,,,,,,,,,1,,,,,,,,,,,,,,,,,,,,,,,,,842.3971029120003,None,842.3971029120003,None,right,1,0.6491497900024115,842.3971029120003,None,843.063551676998,None,,,,,,,,,,,,,,,,,,,,,,,,,,,,,,,,,,10,Female,43,001,2021_Mar_09_2103,cal_abstract,2020.2.4,60.00275940576783,
,,,,Cond,stimuli/Sad/46.jpg,left,,,,,,,,,,,,0,61,61,61,,,,,,,,,,,,,,,,,,,,,,,,,,,,,,,,,,,,,,,,1,,,,,,,,,,,,,,,,,,,,,,,,,843.8303797219996,None,843.8303797219996,None,left,1,0.8245592450002732,843.8303797219996,None,844.6803020740008,None,,,,,,,,,,,,,,,,,,,,,,,,,,,,,,,,,,10,Female,43,001,2021_Mar_09_2103,cal_abstract,2020.2.4,60.00275940576783,
,,,,Cond,stimuli/Sad/18.jpg,right,,,,,,,,,,,,0,62,62,62,,,,,,,,,,,,,,,,,,,,,,,,,,,,,,,,,,,,,,,,0,,,,,,,,,,,,,,,,,,,,,,,,,845.4471611469999,None,845.4471611469999,None,left,0,1.859575013997528,845.4471611469999,None,847.3303749820006,None,,,,,,,,,,,,,,,,,,,,,,,,,,,,,,,,,,10,Female,43,001,2021_Mar_09_2103,cal_abstract,2020.2.4,60.00275940576783,
,,,,Cond,stimuli/Sad/1.jpg,left,,,,,,,,,,,,0,63,63,63,,,,,,,,,,,,,,,,,,,,,,,,,,,,,,,,,,,,,,,,1,,,,,,,,,,,,,,,,,,,,,,,,,848.0973312690003,None,848.0973312690003,None,left,1,2.1192083570022078,848.0973312690003,None,850.2474044869996,None,,,,,,,,,,,,,,,,,,,,,,,,,,,,,,,,,,10,Female,43,001,2021_Mar_09_2103,cal_abstract,2020.2.4,60.00275940576783,
,,,,Fix1,stimuli/Old/22.jpg,right,,,,,,,,,,,,0,64,64,64,,,,,,,,,,,,,,,,,,,,,,,,,,,,,,,,,,,,,,,,1,,,,,,,,,,,,,,,,,,,,,,,,,851.0145071089973,None,851.0145071089973,None,right,1,1.1209967699978733,851.0145071089973,None,852.1636326869993,None,,,,,,,,,,,,,,,,,,,,,,,,,,,,,,,,,,10,Female,43,001,2021_Mar_09_2103,cal_abstract,2020.2.4,60.00275940576783,
,,,,Fix2,stimuli/Small/59.jpg,left,,,,,,,,,,,,0,65,65,65,,,,,,,,,,,,,,,,,,,,,,,,,,,,,,,,,,,,,,,,0,,,,,,,,,,,,,,,,,,,,,,,,,852.9308834639996,None,852.9308834639996,None,right,0,1.239423294999142,852.9308834639996,None,854.1964630479997,None,,,,,,,,,,,,,,,,,,,,,,,,,,,,,,,,,,10,Female,43,001,2021_Mar_09_2103,cal_abstract,2020.2.4,60.00275940576783,
,,,,Fix1,stimuli/Old/31.jpg,right,,,,,,,,,,,,0,66,66,66,,,,,,,,,,,,,,,,,,,,,,,,,,,,,,,,,,,,,,,,1,,,,,,,,,,,,,,,,,,,,,,,,,854.9811865240008,None,854.9811865240008,None,right,1,2.9529786319981213,854.9811865240008,None,857.9643062089999,None,,,,,,,,,,,,,,,,,,,,,,,,,,,,,,,,,,10,Female,43,001,2021_Mar_09_2103,cal_abstract,2020.2.4,60.00275940576783,
,,,,Fix2,stimuli/Small/37.jpg,left,,,,,,,,,,,,0,67,67,67,,,,,,,,,,,,,,,,,,,,,,,,,,,,,,,,,,,,,,,,1,,,,,,,,,,,,,,,,,,,,,,,,,858.7314335789997,None,858.7314335789997,None,left,1,3.238553902003332,858.7314335789997,None,861.9984124639996,None,,,,,,,,,,,,,,,,,,,,,,,,,,,,,,,,,,10,Female,43,001,2021_Mar_09_2103,cal_abstract,2020.2.4,60.00275940576783,
,,,,Fix2,stimuli/Small/60.jpg,left,,,,,,,,,,,,0,68,68,68,,,,,,,,,,,,,,,,,,,,,,,,,,,,,,,,,,,,,,,,0,,,,,,,,,,,,,,,,,,,,,,,,,862.7651604819985,None,862.7651604819985,None,right,0,2.441051697001967,862.7651604819985,None,865.2319243169986,None,,,,,,,,,,,,,,,,,,,,,,,,,,,,,,,,,,10,Female,43,001,2021_Mar_09_2103,cal_abstract,2020.2.4,60.00275940576783,
,,,,Fix2,stimuli/Small/21.jpg,left,,,,,,,,,,,,0,69,69,69,,,,,,,,,,,,,,,,,,,,,,,,,,,,,,,,,,,,,,,,0,,,,,,,,,,,,,,,,,,,,,,,,,865.9985918569982,None,865.9985918569982,None,right,0,2.8223708879995684,865.9985918569982,None,868.8486798519989,None,,,,,,,,,,,,,,,,,,,,,,,,,,,,,,,,,,10,Female,43,001,2021_Mar_09_2103,cal_abstract,2020.2.4,60.00275940576783,
,,,,Fix2,stimuli/Small/43.jpg,left,,,,,,,,,,,,0,70,70,70,,,,,,,,,,,,,,,,,,,,,,,,,,,,,,,,,,,,,,,,0,,,,,,,,,,,,,,,,,,,,,,,,,869.6144674839998,None,869.6144674839998,None,right,0,2.898809796999558,869.6144674839998,None,872.5322883619992,None,,,,,,,,,,,,,,,,,,,,,,,,,,,,,,,,,,10,Female,43,001,2021_Mar_09_2103,cal_abstract,2020.2.4,60.00275940576783,
,,,,Fix2,stimuli/Small/29.jpg,left,,,,,,,,,,,,0,71,71,71,,,,,,,,,,,,,,,,,,,,,,,,,,,,,,,,,,,,,,,,0,,,,,,,,,,,,,,,,,,,,,,,,,873.2991620619978,None,873.2991620619978,None,right,0,0.9984794850024628,873.2991620619978,None,874.3160374769977,None,,,,,,,,,,,,,,,,,,,,,,,,,,,,,,,,,,10,Female,43,001,2021_Mar_09_2103,cal_abstract,2020.2.4,60.00275940576783,
,,,,Cond,stimuli/Sad/22.jpg,right,,,,,,,,,,,,0,72,72,72,,,,,,,,,,,,,,,,,,,,,,,,,,,,,,,,,,,,,,,,0,,,,,,,,,,,,,,,,,,,,,,,,,875.0828495589994,None,875.0828495589994,None,left,0,1.0436296830011997,875.0828495589994,None,876.1491996519981,None,,,,,,,,,,,,,,,,,,,,,,,,,,,,,,,,,,10,Female,43,001,2021_Mar_09_2103,cal_abstract,2020.2.4,60.00275940576783,
,,,,Cond,stimuli/Sad/9.jpg,left,,,,,,,,,,,,0,73,73,73,,,,,,,,,,,,,,,,,,,,,,,,,,,,,,,,,,,,,,,,1,,,,,,,,,,,,,,,,,,,,,,,,,876.915981058999,None,876.915981058999,None,left,1,0.7824411149995285,876.915981058999,None,877.7157384419988,None,,,,,,,,,,,,,,,,,,,,,,,,,,,,,,,,,,10,Female,43,001,2021_Mar_09_2103,cal_abstract,2020.2.4,60.00275940576783,
,,,,Fix1,stimuli/Old/25.jpg,right,,,,,,,,,,,,0,74,74,74,,,,,,,,,,,,,,,,,,,,,,,,,,,,,,,,,,,,,,,,1,,,,,,,,,,,,,,,,,,,,,,,,,878.4828375670004,None,878.4828375670004,None,right,1,0.7672821800006204,878.4828375670004,None,879.2828391139992,None,,,,,,,,,,,,,,,,,,,,,,,,,,,,,,,,,,10,Female,43,001,2021_Mar_09_2103,cal_abstract,2020.2.4,60.00275940576783,
,,,,Fix2,stimuli/Small/46.jpg,left,,,,,,,,,,,,0,75,75,75,,,,,,,,,,,,,,,,,,,,,,,,,,,,,,,,,,,,,,,,1,,,,,,,,,,,,,,,,,,,,,,,,,880.049615762,None,880.049615762,None,left,1,2.1334655150021717,880.049615762,None,882.216231552,None,,,,,,,,,,,,,,,,,,,,,,,,,,,,,,,,,,10,Female,43,001,2021_Mar_09_2103,cal_abstract,2020.2.4,60.00275940576783,
,,,,Cond,stimuli/Sad/33.jpg,right,,,,,,,,,,,,0,76,76,76,,,,,,,,,,,,,,,,,,,,,,,,,,,,,,,,,,,,,,,,1,,,,,,,,,,,,,,,,,,,,,,,,,882.9832033540006,None,882.9832033540006,None,right,1,1.3537800169979164,882.9832033540006,None,884.3663196870002,None,,,,,,,,,,,,,,,,,,,,,,,,,,,,,,,,,,10,Female,43,001,2021_Mar_09_2103,cal_abstract,2020.2.4,60.00275940576783,
,,,,Fix2,stimuli/Small/40.jpg,left,,,,,,,,,,,,0,77,77,77,,,,,,,,,,,,,,,,,,,,,,,,,,,,,,,,,,,,,,,,0,,,,,,,,,,,,,,,,,,,,,,,,,885.1499279140007,None,885.1499279140007,None,right,0,1.0567383099987637,885.1499279140007,None,886.2327784289992,None,,,,,,,,,,,,,,,,,,,,,,,,,,,,,,,,,,10,Female,43,001,2021_Mar_09_2103,cal_abstract,2020.2.4,60.00275940576783,
,,,,Cond,stimuli/Sad/24.jpg,right,,,,,,,,,,,,0,78,78,78,,,,,,,,,,,,,,,,,,,,,,,,,,,,,,,,,,,,,,,,0,,,,,,,,,,,,,,,,,,,,,,,,,886.9998737770002,None,886.9998737770002,None,left,0,0.8289092550003261,886.9998737770002,None,887.8490282989987,None,,,,,,,,,,,,,,,,,,,,,,,,,,,,,,,,,,10,Female,43,001,2021_Mar_09_2103,cal_abstract,2020.2.4,60.00275940576783,
,,,,Fix2,stimuli/Small/35.jpg,left,,,,,,,,,,,,0,79,79,79,,,,,,,,,,,,,,,,,,,,,,,,,,,,,,,,,,,,,,,,0,,,,,,,,,,,,,,,,,,,,,,,,,888.6165452489986,None,888.6165452489986,None,right,0,3.6121615650008607,888.6165452489986,None,892.2502612089993,None,,,,,,,,,,,,,,,,,,,,,,,,,,,,,,,,,,10,Female,43,001,2021_Mar_09_2103,cal_abstract,2020.2.4,60.00275940576783,
,,,,Cond,stimuli/Sad/14.jpg,right,,,,,,,,,,,,0,80,80,80,,,,,,,,,,,,,,,,,,,,,,,,,,,,,,,,,,,,,,,,0,,,,,,,,,,,,,,,,,,,,,,,,,893.0171584319978,None,893.0171584319978,None,left,0,0.8129474369998206,893.0171584319978,None,893.8502946939989,None,,,,,,,,,,,,,,,,,,,,,,,,,,,,,,,,,,10,Female,43,001,2021_Mar_09_2103,cal_abstract,2020.2.4,60.00275940576783,
,,,,Fix2,stimuli/Small/6.jpg,left,,,,,,,,,,,,0,81,81,81,,,,,,,,,,,,,,,,,,,,,,,,,,,,,,,,,,,,,,,,0,,,,,,,,,,,,,,,,,,,,,,,,,894.6171907319986,None,894.6171907319986,None,right,0,6.101521460001095,894.6171907319986,None,900.7509439870009,None,,,,,,,,,,,,,,,,,,,,,,,,,,,,,,,,,,10,Female,43,001,2021_Mar_09_2103,cal_abstract,2020.2.4,60.00275940576783,
,,,,Fix2,stimuli/Small/34.jpg,left,,,,,,,,,,,,0,82,82,82,,,,,,,,,,,,,,,,,,,,,,,,,,,,,,,,,,,,,,,,1,,,,,,,,,,,,,,,,,,,,,,,,,901.5179605739977,None,901.5179605739977,None,left,1,3.7948030850020587,901.5179605739977,None,905.3349457669974,None,,,,,,,,,,,,,,,,,,,,,,,,,,,,,,,,,,10,Female,43,001,2021_Mar_09_2103,cal_abstract,2020.2.4,60.00275940576783,
,,,,Fix1,stimuli/Old/21.jpg,right,,,,,,,,,,,,0,83,83,83,,,,,,,,,,,,,,,,,,,,,,,,,,,,,,,,,,,,,,,,1,,,,,,,,,,,,,,,,,,,,,,,,,906.1013877719997,None,906.1013877719997,None,right,1,3.2567397380007606,906.1013877719997,None,909.3848118669994,None,,,,,,,,,,,,,,,,,,,,,,,,,,,,,,,,,,10,Female,43,001,2021_Mar_09_2103,cal_abstract,2020.2.4,60.00275940576783,
,,,,Fix2,stimuli/Small/3.jpg,left,,,,,,,,,,,,0,84,84,84,,,,,,,,,,,,,,,,,,,,,,,,,,,,,,,,,,,,,,,,1,,,,,,,,,,,,,,,,,,,,,,,,,910.1515955689974,None,910.1515955689974,None,left,1,2.9254843149974477,910.1515955689974,None,913.1019298419997,None,,,,,,,,,,,,,,,,,,,,,,,,,,,,,,,,,,10,Female,43,001,2021_Mar_09_2103,cal_abstract,2020.2.4,60.00275940576783,
,,,,Fix2,stimuli/Small/33.jpg,left,,,,,,,,,,,,0,85,85,85,,,,,,,,,,,,,,,,,,,,,,,,,,,,,,,,,,,,,,,,0,,,,,,,,,,,,,,,,,,,,,,,,,913.8678599039995,None,913.8678599039995,None,right,0,2.196880763000081,913.8678599039995,None,916.0849962119973,None,,,,,,,,,,,,,,,,,,,,,,,,,,,,,,,,,,10,Female,43,001,2021_Mar_09_2103,cal_abstract,2020.2.4,60.00275940576783,
