Text,Block1Type,Block1Stim,Block1Corr,Block2Type,Block2Stim,Block2Corr,Block3Type,Block3Stim,Block3Corr,Instruction_loop.thisRepN,Instruction_loop.thisTrialN,Instruction_loop.thisN,Instruction_loop.thisIndex,Block1_loop.thisRepN,Block1_loop.thisTrialN,Block1_loop.thisN,Block1_loop.thisIndex,Block2_loop.thisRepN,Block2_loop.thisTrialN,Block2_loop.thisN,Block2_loop.thisIndex,Block3_loop.thisRepN,Block3_loop.thisTrialN,Block3_loop.thisN,Block3_loop.thisIndex,welcome_text1.started,welcome_text1.stopped,welcome_text2.started,welcome_text2.stopped,welcome_text3.started,welcome_text3.stopped,welcome_resp.keys,welcome_resp.rt,welcome_resp.started,welcome_resp.stopped,instruct_text1.started,instruct_text1.stopped,instruct_text2.started,instruct_text2.stopped,instruct_resp1.keys,instruct_resp1.rt,instruct_resp1.started,instruct_resp1.stopped,start_text1.started,start_text1.stopped,start_text2.started,start_text2.stopped,start_resp1.keys,start_resp1.rt,start_resp1.started,start_resp1.stopped,image1.started,image1.stopped,text1.started,text1.stopped,key_resp1.keys,key_resp1.corr,key_resp1.rt,key_resp1.started,key_resp1.stopped,trialCorrect,feedback_text1.started,feedback_text1.stopped,break_text1.started,break_text1.stopped,break_resp1.keys,break_resp1.rt,break_resp1.started,break_resp1.stopped,intructRemind_text1.started,intructRemind_text1.stopped,instructRemind_text2.started,instructRemind_text2.stopped,instructRemind_resp1.keys,instructRemind_resp1.rt,instructRemind_resp1.started,instructRemind_resp1.stopped,start_text3.started,start_text3.stopped,start_text4.started,start_text4.stopped,start_resp2.keys,start_resp2.rt,start_resp2.started,start_resp2.stopped,image2.started,image2.stopped,text2.started,text2.stopped,key_resp2.keys,key_resp2.corr,key_resp2.rt,key_resp2.started,key_resp2.stopped,feedback_text2.started,feedback_text2.stopped,break_text2.started,break_text2.stopped,break_resp2.keys,break_resp2.rt,break_resp2.started,break_resp2.stopped,start_text5.started,start_text5.stopped,start_text6.started,start_text6.stopped,start_resp3.keys,start_resp3.rt,start_resp3.started,start_resp3.stopped,image3.started,image3.stopped,text3.started,text3.stopped,key_resp3.keys,key_resp3.corr,key_resp3.rt,key_resp3.started,key_resp3.stopped,feedback_text3.started,feedback_text3.stopped,end_text1.started,end_text1.stopped,end_text2.started,end_text2.stopped,end_resp.keys,end_resp.rt,end_resp.started,end_resp.stopped,participant,sex,age,session,date,expName,psychopyVersion,frameRate,
,,,,,,,,,,,,,,,,,,,,,,,,,,49.99862130032852,None,49.99862130032852,None,49.99862130032852,None,return,152.05707660038024,49.99862130032852,None,,,,,,,,,,,,,,,,,,,,,,,,,,,,,,,,,,,,,,,,,,,,,,,,,,,,,,,,,,,,,,,,,,,,,,,,,,,,,,,,,,,,,,,,,,,,,,,42,Male,52,001,2021_Mar_10_1906,cal_abstract,2020.2.4,59.97943908723039,
"You will be presented with a series of images. It is your job to learn, through trial and error, whether the “Left” or “Right” arrow key should be pressed for each image.",,,,,,,,,,0,0,0,0,,,,,,,,,,,,,,,,,,,,,,,202.12893500039354,None,202.12893500039354,None,return,2.0181662002578378,202.12893500039354,None,,,,,,,,,,,,,,,,,,,,,,,,,,,,,,,,,,,,,,,,,,,,,,,,,,,,,,,,,,,,,,,,,,,,,,,,,,,,,,,,,,,,,,,42,Male,52,001,2021_Mar_10_1906,cal_abstract,2020.2.4,59.97943908723039,
"For some images you should always press “Left”, and for others you should always press “Right” arrow key.",,,,,,,,,,0,1,1,1,,,,,,,,,,,,,,,,,,,,,,,204.1698100999929,None,204.1698100999929,None,return,8.41745650023222,204.1698100999929,None,,,,,,,,,,,,,,,,,,,,,,,,,,,,,,,,,,,,,,,,,,,,,,,,,,,,,,,,,,,,,,,,,,,,,,,,,,,,,,,,,,,,,,,42,Male,52,001,2021_Mar_10_1906,cal_abstract,2020.2.4,59.97943908723039,
Some images are special: the correct response is the opposite of the preceding correct response.,,,,,,,,,,0,2,2,2,,,,,,,,,,,,,,,,,,,,,,,212.61259020026773,None,212.61259020026773,None,return,4.74637239985168,212.61259020026773,None,,,,,,,,,,,,,,,,,,,,,,,,,,,,,,,,,,,,,,,,,,,,,,,,,,,,,,,,,,,,,,,,,,,,,,,,,,,,,,,,,,,,,,,42,Male,52,001,2021_Mar_10_1906,cal_abstract,2020.2.4,59.97943908723039,
"That is, if the previous correct answer was “Left” then the correct response would now be “Right”.",,,,,,,,,,0,3,3,3,,,,,,,,,,,,,,,,,,,,,,,217.3922101003118,None,217.3922101003118,None,return,4.000490199774504,217.3922101003118,None,,,,,,,,,,,,,,,,,,,,,,,,,,,,,,,,,,,,,,,,,,,,,,,,,,,,,,,,,,,,,,,,,,,,,,,,,,,,,,,,,,,,,,,42,Male,52,001,2021_Mar_10_1906,cal_abstract,2020.2.4,59.97943908723039,
"After each response, you will be told whether you got the item correct or incorrect.",,,,,,,,,,0,4,4,4,,,,,,,,,,,,,,,,,,,,,,,221.42335950024426,None,221.42335950024426,None,return,3.9913165997713804,221.42335950024426,None,,,,,,,,,,,,,,,,,,,,,,,,,,,,,,,,,,,,,,,,,,,,,,,,,,,,,,,,,,,,,,,,,,,,,,,,,,,,,,,,,,,,,,,42,Male,52,001,2021_Mar_10_1906,cal_abstract,2020.2.4,59.97943908723039,
"You can take as long as you like on each image, but the task will not continue until you press the “Left” or “Right” arrow key.",,,,,,,,,,0,5,5,5,,,,,,,,,,,,,,,,,,,,,,,225.43725930014625,None,225.43725930014625,None,return,4.22752819955349,225.43725930014625,None,,,,,,,,,,,,,,,,,,,,,,,,,,,,,,,,,,,,,,,,,,,,,,,,,,,,,,,,,,,,,,,,,,,,,,,,,,,,,,,,,,,,,,,42,Male,52,001,2021_Mar_10_1906,cal_abstract,2020.2.4,59.97943908723039,
"The experiment will have three blocks, each block will take approximately 10 minutes to complete.",,,,,,,,,,0,6,6,6,,,,,,,,,,,,,,,,,,,,,,,229.70164460036904,None,229.70164460036904,None,return,2.40626830002293,229.70164460036904,None,,,,,,,,,,,,,,,,,,,,,,,,,,,,,,,,,,,,,,,,,,,,,,,,,,,,,,,,,,,,,,,,,,,,,,,,,,,,,,,,,,,,,,,42,Male,52,001,2021_Mar_10_1906,cal_abstract,2020.2.4,59.97943908723039,
,,,,,,,,,,,,,,,,,,,,,,,,,,,,,,,,,,,,,,,,,,,,232.12375470018014,None,232.12375470018014,None,s,4.2915463000535965,232.12375470018014,None,,,,,,,,,,,,,,,,,,,,,,,,,,,,,,,,,,,,,,,,,,,,,,,,,,,,,,,,,,,,,,,,,,,,,,,,,,,,,,,42,Male,52,001,2021_Mar_10_1906,cal_abstract,2020.2.4,59.97943908723039,
,Fix1,stimuli/Small/58.jpg,left,,,,,,,,,,,0,0,0,0,,,,,,,,,,,,,,,,,,,,,,,,,,,,,,,,,,,236.5755463000387,None,236.5755463000387,None,right,0,29.78713919967413,236.5755463000387,None,0,266.39937220001593,None,,,,,,,,,,,,,,,,,,,,,,,,,,,,,,,,,,,,,,,,,,,,,,,,,,,,,,,,,,,,,,,,,,,42,Male,52,001,2021_Mar_10_1906,cal_abstract,2020.2.4,59.97943908723039,
,Cond,stimuli/Smell/1.jpg,right,,,,,,,,,,,0,1,1,1,,,,,,,,,,,,,,,,,,,,,,,,,,,,,,,,,,,267.1874118000269,None,267.1874118000269,None,left,0,4.348098000045866,267.1874118000269,None,0,271.5599613999948,None,,,,,,,,,,,,,,,,,,,,,,,,,,,,,,,,,,,,,,,,,,,,,,,,,,,,,,,,,,,,,,,,,,,42,Male,52,001,2021_Mar_10_1906,cal_abstract,2020.2.4,59.97943908723039,
,Cond,stimuli/Smell/18.jpg,left,,,,,,,,,,,0,2,2,2,,,,,,,,,,,,,,,,,,,,,,,,,,,,,,,,,,,272.34058720013127,None,272.34058720013127,None,right,0,7.247830200009048,272.34058720013127,None,0,279.6218579001725,None,,,,,,,,,,,,,,,,,,,,,,,,,,,,,,,,,,,,,,,,,,,,,,,,,,,,,,,,,,,,,,,,,,,42,Male,52,001,2021_Mar_10_1906,cal_abstract,2020.2.4,59.97943908723039,
,Cond,stimuli/Smell/23.jpg,right,,,,,,,,,,,0,3,3,3,,,,,,,,,,,,,,,,,,,,,,,,,,,,,,,,,,,280.3944685002789,None,280.3944685002789,None,right,1,3.9842562996782362,280.3944685002789,None,1,284.42190290009603,None,,,,,,,,,,,,,,,,,,,,,,,,,,,,,,,,,,,,,,,,,,,,,,,,,,,,,,,,,,,,,,,,,,,42,Male,52,001,2021_Mar_10_1906,cal_abstract,2020.2.4,59.97943908723039,
,Cond,stimuli/Smell/3.jpg,left,,,,,,,,,,,0,4,4,4,,,,,,,,,,,,,,,,,,,,,,,,,,,,,,,,,,,285.17822430003434,None,285.17822430003434,None,right,0,3.2975241001695395,285.17822430003434,None,0,288.4973225002177,None,,,,,,,,,,,,,,,,,,,,,,,,,,,,,,,,,,,,,,,,,,,,,,,,,,,,,,,,,,,,,,,,,,,42,Male,52,001,2021_Mar_10_1906,cal_abstract,2020.2.4,59.97943908723039,
,Fix1,stimuli/Small/30.jpg,left,,,,,,,,,,,0,5,5,5,,,,,,,,,,,,,,,,,,,,,,,,,,,,,,,,,,,289.30209710029885,None,289.30209710029885,None,left,1,3.7139874999411404,289.30209710029885,None,1,293.04641310032457,None,,,,,,,,,,,,,,,,,,,,,,,,,,,,,,,,,,,,,,,,,,,,,,,,,,,,,,,,,,,,,,,,,,,42,Male,52,001,2021_Mar_10_1906,cal_abstract,2020.2.4,59.97943908723039,
,Fix2,stimuli/School/26.jpg,right,,,,,,,,,,,0,6,6,6,,,,,,,,,,,,,,,,,,,,,,,,,,,,,,,,,,,293.8342826003209,None,293.8342826003209,None,right,1,1.2245143996551633,293.8342826003209,None,1,295.09008820028976,None,,,,,,,,,,,,,,,,,,,,,,,,,,,,,,,,,,,,,,,,,,,,,,,,,,,,,,,,,,,,,,,,,,,42,Male,52,001,2021_Mar_10_1906,cal_abstract,2020.2.4,59.97943908723039,
,Cond,stimuli/Smell/38.jpg,left,,,,,,,,,,,0,7,7,7,,,,,,,,,,,,,,,,,,,,,,,,,,,,,,,,,,,295.87426980026066,None,295.87426980026066,None,left,1,1.3674449999816716,295.87426980026066,None,1,297.27368010021746,None,,,,,,,,,,,,,,,,,,,,,,,,,,,,,,,,,,,,,,,,,,,,,,,,,,,,,,,,,,,,,,,,,,,42,Male,52,001,2021_Mar_10_1906,cal_abstract,2020.2.4,59.97943908723039,
,Fix1,stimuli/Small/13.jpg,left,,,,,,,,,,,0,8,8,8,,,,,,,,,,,,,,,,,,,,,,,,,,,,,,,,,,,298.06168750021607,None,298.06168750021607,None,left,1,1.0614459002390504,298.06168750021607,None,1,299.1522217001766,None,,,,,,,,,,,,,,,,,,,,,,,,,,,,,,,,,,,,,,,,,,,,,,,,,,,,,,,,,,,,,,,,,,,42,Male,52,001,2021_Mar_10_1906,cal_abstract,2020.2.4,59.97943908723039,
,Fix2,stimuli/School/6.jpg,right,,,,,,,,,,,0,9,9,9,,,,,,,,,,,,,,,,,,,,,,,,,,,,,,,,,,,299.93441460002214,None,299.93441460002214,None,left,0,1.067990199662745,299.93441460002214,None,0,301.02861399995163,None,,,,,,,,,,,,,,,,,,,,,,,,,,,,,,,,,,,,,,,,,,,,,,,,,,,,,,,,,,,,,,,,,,,42,Male,52,001,2021_Mar_10_1906,cal_abstract,2020.2.4,59.97943908723039,
,Fix1,stimuli/Small/59.jpg,left,,,,,,,,,,,0,10,10,10,,,,,,,,,,,,,,,,,,,,,,,,,,,,,,,,,,,301.7941584000364,None,301.7941584000364,None,left,1,1.1095174001529813,301.7941584000364,None,1,302.94496730016544,None,,,,,,,,,,,,,,,,,,,,,,,,,,,,,,,,,,,,,,,,,,,,,,,,,,,,,,,,,,,,,,,,,,,42,Male,52,001,2021_Mar_10_1906,cal_abstract,2020.2.4,59.97943908723039,
,Fix1,stimuli/Small/16.jpg,left,,,,,,,,,,,0,11,11,11,,,,,,,,,,,,,,,,,,,,,,,,,,,,,,,,,,,303.74364310037345,None,303.74364310037345,None,right,0,1.1388538996689022,303.74364310037345,None,0,304.9076110003516,None,,,,,,,,,,,,,,,,,,,,,,,,,,,,,,,,,,,,,,,,,,,,,,,,,,,,,,,,,,,,,,,,,,,42,Male,52,001,2021_Mar_10_1906,cal_abstract,2020.2.4,59.97943908723039,
,Cond,stimuli/Smell/11.jpg,right,,,,,,,,,,,0,12,12,12,,,,,,,,,,,,,,,,,,,,,,,,,,,,,,,,,,,305.6834256001748,None,305.6834256001748,None,right,1,1.393964699935168,305.6834256001748,None,1,307.097440500278,None,,,,,,,,,,,,,,,,,,,,,,,,,,,,,,,,,,,,,,,,,,,,,,,,,,,,,,,,,,,,,,,,,,,42,Male,52,001,2021_Mar_10_1906,cal_abstract,2020.2.4,59.97943908723039,
,Fix2,stimuli/School/53.jpg,right,,,,,,,,,,,0,13,13,13,,,,,,,,,,,,,,,,,,,,,,,,,,,,,,,,,,,307.88271720008925,None,307.88271720008925,None,left,0,3.8658167999237776,307.88271720008925,None,0,311.78323150007054,None,,,,,,,,,,,,,,,,,,,,,,,,,,,,,,,,,,,,,,,,,,,,,,,,,,,,,,,,,,,,,,,,,,,42,Male,52,001,2021_Mar_10_1906,cal_abstract,2020.2.4,59.97943908723039,
,Fix2,stimuli/School/54.jpg,right,,,,,,,,,,,0,14,14,14,,,,,,,,,,,,,,,,,,,,,,,,,,,,,,,,,,,312.5644914000295,None,312.5644914000295,None,right,1,5.566352800000459,312.5644914000295,None,1,318.1599028999917,None,,,,,,,,,,,,,,,,,,,,,,,,,,,,,,,,,,,,,,,,,,,,,,,,,,,,,,,,,,,,,,,,,,,42,Male,52,001,2021_Mar_10_1906,cal_abstract,2020.2.4,59.97943908723039,
,Fix2,stimuli/School/39.jpg,right,,,,,,,,,,,0,15,15,15,,,,,,,,,,,,,,,,,,,,,,,,,,,,,,,,,,,318.9371913000941,None,318.9371913000941,None,right,1,3.127012699842453,318.9371913000941,None,1,322.08399520022795,None,,,,,,,,,,,,,,,,,,,,,,,,,,,,,,,,,,,,,,,,,,,,,,,,,,,,,,,,,,,,,,,,,,,42,Male,52,001,2021_Mar_10_1906,cal_abstract,2020.2.4,59.97943908723039,
,Fix1,stimuli/Small/42.jpg,left,,,,,,,,,,,0,16,16,16,,,,,,,,,,,,,,,,,,,,,,,,,,,,,,,,,,,322.86025770008564,None,322.86025770008564,None,left,1,3.405411799903959,322.86025770008564,None,1,326.2805627002381,None,,,,,,,,,,,,,,,,,,,,,,,,,,,,,,,,,,,,,,,,,,,,,,,,,,,,,,,,,,,,,,,,,,,42,Male,52,001,2021_Mar_10_1906,cal_abstract,2020.2.4,59.97943908723039,
,Fix1,stimuli/Small/25.jpg,left,,,,,,,,,,,0,17,17,17,,,,,,,,,,,,,,,,,,,,,,,,,,,,,,,,,,,327.0724136000499,None,327.0724136000499,None,right,0,2.7617928003892303,327.0724136000499,None,0,329.8638710002415,None,,,,,,,,,,,,,,,,,,,,,,,,,,,,,,,,,,,,,,,,,,,,,,,,,,,,,,,,,,,,,,,,,,,42,Male,52,001,2021_Mar_10_1906,cal_abstract,2020.2.4,59.97943908723039,
,Fix1,stimuli/Small/41.jpg,left,,,,,,,,,,,0,18,18,18,,,,,,,,,,,,,,,,,,,,,,,,,,,,,,,,,,,330.6713560000062,None,330.6713560000062,None,right,0,3.9221785999834538,330.6713560000062,None,0,334.6229918003082,None,,,,,,,,,,,,,,,,,,,,,,,,,,,,,,,,,,,,,,,,,,,,,,,,,,,,,,,,,,,,,,,,,,,42,Male,52,001,2021_Mar_10_1906,cal_abstract,2020.2.4,59.97943908723039,
,Fix2,stimuli/School/42.jpg,right,,,,,,,,,,,0,19,19,19,,,,,,,,,,,,,,,,,,,,,,,,,,,,,,,,,,,335.38601360004395,None,335.38601360004395,None,left,0,1.6807221001945436,335.38601360004395,None,0,337.0917330002412,None,,,,,,,,,,,,,,,,,,,,,,,,,,,,,,,,,,,,,,,,,,,,,,,,,,,,,,,,,,,,,,,,,,,42,Male,52,001,2021_Mar_10_1906,cal_abstract,2020.2.4,59.97943908723039,
,Fix1,stimuli/Small/48.jpg,left,,,,,,,,,,,0,20,20,20,,,,,,,,,,,,,,,,,,,,,,,,,,,,,,,,,,,337.8608809001744,None,337.8608809001744,None,left,1,2.3484817002899945,337.8608809001744,None,1,340.24143090005964,None,,,,,,,,,,,,,,,,,,,,,,,,,,,,,,,,,,,,,,,,,,,,,,,,,,,,,,,,,,,,,,,,,,,42,Male,52,001,2021_Mar_10_1906,cal_abstract,2020.2.4,59.97943908723039,
,Fix2,stimuli/School/50.jpg,right,,,,,,,,,,,0,21,21,21,,,,,,,,,,,,,,,,,,,,,,,,,,,,,,,,,,,341.025617999956,None,341.025617999956,None,right,1,2.8483523996546865,341.025617999956,None,1,343.8990209000185,None,,,,,,,,,,,,,,,,,,,,,,,,,,,,,,,,,,,,,,,,,,,,,,,,,,,,,,,,,,,,,,,,,,,42,Male,52,001,2021_Mar_10_1906,cal_abstract,2020.2.4,59.97943908723039,
,Fix1,stimuli/Small/17.jpg,left,,,,,,,,,,,0,22,22,22,,,,,,,,,,,,,,,,,,,,,,,,,,,,,,,,,,,344.6687103002332,None,344.6687103002332,None,left,1,1.422863599844277,344.6687103002332,None,1,346.11730700032786,None,,,,,,,,,,,,,,,,,,,,,,,,,,,,,,,,,,,,,,,,,,,,,,,,,,,,,,,,,,,,,,,,,,,42,Male,52,001,2021_Mar_10_1906,cal_abstract,2020.2.4,59.97943908723039,
,Cond,stimuli/Smell/0.jpg,right,,,,,,,,,,,0,23,23,23,,,,,,,,,,,,,,,,,,,,,,,,,,,,,,,,,,,346.8854295001365,None,346.8854295001365,None,left,0,1.3440980999730527,346.8854295001365,None,0,348.2561256000772,None,,,,,,,,,,,,,,,,,,,,,,,,,,,,,,,,,,,,,,,,,,,,,,,,,,,,,,,,,,,,,,,,,,,42,Male,52,001,2021_Mar_10_1906,cal_abstract,2020.2.4,59.97943908723039,
,Cond,stimuli/Smell/39.jpg,left,,,,,,,,,,,0,24,24,24,,,,,,,,,,,,,,,,,,,,,,,,,,,,,,,,,,,349.0309976004064,None,349.0309976004064,None,left,1,2.7693883003666997,349.0309976004064,None,1,351.8362815002911,None,,,,,,,,,,,,,,,,,,,,,,,,,,,,,,,,,,,,,,,,,,,,,,,,,,,,,,,,,,,,,,,,,,,42,Male,52,001,2021_Mar_10_1906,cal_abstract,2020.2.4,59.97943908723039,
,Fix1,stimuli/Small/4.jpg,left,,,,,,,,,,,0,25,25,25,,,,,,,,,,,,,,,,,,,,,,,,,,,,,,,,,,,352.6059938999824,None,352.6059938999824,None,right,0,0.9637450003065169,352.6059938999824,None,0,353.6011393000372,None,,,,,,,,,,,,,,,,,,,,,,,,,,,,,,,,,,,,,,,,,,,,,,,,,,,,,,,,,,,,,,,,,,,42,Male,52,001,2021_Mar_10_1906,cal_abstract,2020.2.4,59.97943908723039,
,Fix1,stimuli/Small/44.jpg,left,,,,,,,,,,,0,26,26,26,,,,,,,,,,,,,,,,,,,,,,,,,,,,,,,,,,,354.39627810008824,None,354.39627810008824,None,right,0,1.2895806999877095,354.39627810008824,None,0,355.70577640039846,None,,,,,,,,,,,,,,,,,,,,,,,,,,,,,,,,,,,,,,,,,,,,,,,,,,,,,,,,,,,,,,,,,,,42,Male,52,001,2021_Mar_10_1906,cal_abstract,2020.2.4,59.97943908723039,
,Cond,stimuli/Smell/42.jpg,right,,,,,,,,,,,0,27,27,27,,,,,,,,,,,,,,,,,,,,,,,,,,,,,,,,,,,356.4859421001747,None,356.4859421001747,None,left,0,4.052742800209671,356.4859421001747,None,0,360.5693234000355,None,,,,,,,,,,,,,,,,,,,,,,,,,,,,,,,,,,,,,,,,,,,,,,,,,,,,,,,,,,,,,,,,,,,42,Male,52,001,2021_Mar_10_1906,cal_abstract,2020.2.4,59.97943908723039,
,Fix1,stimuli/Small/9.jpg,left,,,,,,,,,,,0,28,28,28,,,,,,,,,,,,,,,,,,,,,,,,,,,,,,,,,,,361.35799390031025,None,361.35799390031025,None,left,1,4.227093999739736,361.35799390031025,None,1,365.6230883002281,None,,,,,,,,,,,,,,,,,,,,,,,,,,,,,,,,,,,,,,,,,,,,,,,,,,,,,,,,,,,,,,,,,,,42,Male,52,001,2021_Mar_10_1906,cal_abstract,2020.2.4,59.97943908723039,
,Cond,stimuli/Smell/20.jpg,right,,,,,,,,,,,0,29,29,29,,,,,,,,,,,,,,,,,,,,,,,,,,,,,,,,,,,366.38929169997573,None,366.38929169997573,None,right,1,4.891241500154138,366.38929169997573,None,1,371.3104290002957,None,,,,,,,,,,,,,,,,,,,,,,,,,,,,,,,,,,,,,,,,,,,,,,,,,,,,,,,,,,,,,,,,,,,42,Male,52,001,2021_Mar_10_1906,cal_abstract,2020.2.4,59.97943908723039,
,Fix2,stimuli/School/58.jpg,right,,,,,,,,,,,0,30,30,30,,,,,,,,,,,,,,,,,,,,,,,,,,,,,,,,,,,372.0770351001993,None,372.0770351001993,None,left,0,2.2384130000136793,372.0770351001993,None,0,374.34498820034787,None,,,,,,,,,,,,,,,,,,,,,,,,,,,,,,,,,,,,,,,,,,,,,,,,,,,,,,,,,,,,,,,,,,,42,Male,52,001,2021_Mar_10_1906,cal_abstract,2020.2.4,59.97943908723039,
,Fix1,stimuli/Small/19.jpg,left,,,,,,,,,,,0,31,31,31,,,,,,,,,,,,,,,,,,,,,,,,,,,,,,,,,,,375.11721050040796,None,375.11721050040796,None,left,1,7.276360200252384,375.11721050040796,None,1,382.42415880039334,None,,,,,,,,,,,,,,,,,,,,,,,,,,,,,,,,,,,,,,,,,,,,,,,,,,,,,,,,,,,,,,,,,,,42,Male,52,001,2021_Mar_10_1906,cal_abstract,2020.2.4,59.97943908723039,
,Fix2,stimuli/School/41.jpg,right,,,,,,,,,,,0,32,32,32,,,,,,,,,,,,,,,,,,,,,,,,,,,,,,,,,,,383.23118570027873,None,383.23118570027873,None,left,0,2.6764475000090897,383.23118570027873,None,0,385.9402750004083,None,,,,,,,,,,,,,,,,,,,,,,,,,,,,,,,,,,,,,,,,,,,,,,,,,,,,,,,,,,,,,,,,,,,42,Male,52,001,2021_Mar_10_1906,cal_abstract,2020.2.4,59.97943908723039,
,Fix2,stimuli/School/15.jpg,right,,,,,,,,,,,0,33,33,33,,,,,,,,,,,,,,,,,,,,,,,,,,,,,,,,,,,386.73870910005644,None,386.73870910005644,None,left,0,4.471955900080502,386.73870910005644,None,0,391.22690320014954,None,,,,,,,,,,,,,,,,,,,,,,,,,,,,,,,,,,,,,,,,,,,,,,,,,,,,,,,,,,,,,,,,,,,42,Male,52,001,2021_Mar_10_1906,cal_abstract,2020.2.4,59.97943908723039,
,Fix2,stimuli/School/0.jpg,right,,,,,,,,,,,0,34,34,34,,,,,,,,,,,,,,,,,,,,,,,,,,,,,,,,,,,392.0357861001976,None,392.0357861001976,None,right,1,1.1339389001950622,392.0357861001976,None,1,393.1943143000826,None,,,,,,,,,,,,,,,,,,,,,,,,,,,,,,,,,,,,,,,,,,,,,,,,,,,,,,,,,,,,,,,,,,,42,Male,52,001,2021_Mar_10_1906,cal_abstract,2020.2.4,59.97943908723039,
,Fix1,stimuli/Small/7.jpg,left,,,,,,,,,,,0,35,35,35,,,,,,,,,,,,,,,,,,,,,,,,,,,,,,,,,,,393.99281139997765,None,393.99281139997765,None,left,1,0.8115922999568284,393.99281139997765,None,1,394.8242621002719,None,,,,,,,,,,,,,,,,,,,,,,,,,,,,,,,,,,,,,,,,,,,,,,,,,,,,,,,,,,,,,,,,,,,42,Male,52,001,2021_Mar_10_1906,cal_abstract,2020.2.4,59.97943908723039,
,Fix1,stimuli/Small/39.jpg,left,,,,,,,,,,,0,36,36,36,,,,,,,,,,,,,,,,,,,,,,,,,,,,,,,,,,,395.6282323002815,None,395.6282323002815,None,right,0,2.874567300081253,395.6282323002815,None,0,398.52851990005,None,,,,,,,,,,,,,,,,,,,,,,,,,,,,,,,,,,,,,,,,,,,,,,,,,,,,,,,,,,,,,,,,,,,42,Male,52,001,2021_Mar_10_1906,cal_abstract,2020.2.4,59.97943908723039,
,Cond,stimuli/Smell/17.jpg,right,,,,,,,,,,,0,37,37,37,,,,,,,,,,,,,,,,,,,,,,,,,,,,,,,,,,,399.30542180035263,None,399.30542180035263,None,left,0,1.3351679001934826,399.30542180035263,None,0,400.66908090002835,None,,,,,,,,,,,,,,,,,,,,,,,,,,,,,,,,,,,,,,,,,,,,,,,,,,,,,,,,,,,,,,,,,,,42,Male,52,001,2021_Mar_10_1906,cal_abstract,2020.2.4,59.97943908723039,
,Cond,stimuli/Smell/53.jpg,left,,,,,,,,,,,0,38,38,38,,,,,,,,,,,,,,,,,,,,,,,,,,,,,,,,,,,401.4368926002644,None,401.4368926002644,None,right,0,1.26386300008744,401.4368926002644,None,0,402.7176354001276,None,,,,,,,,,,,,,,,,,,,,,,,,,,,,,,,,,,,,,,,,,,,,,,,,,,,,,,,,,,,,,,,,,,,42,Male,52,001,2021_Mar_10_1906,cal_abstract,2020.2.4,59.97943908723039,
,Cond,stimuli/Smell/47.jpg,right,,,,,,,,,,,0,39,39,39,,,,,,,,,,,,,,,,,,,,,,,,,,,,,,,,,,,403.51267960015684,None,403.51267960015684,None,right,1,1.11316329985857,403.51267960015684,None,1,404.6515602003783,None,,,,,,,,,,,,,,,,,,,,,,,,,,,,,,,,,,,,,,,,,,,,,,,,,,,,,,,,,,,,,,,,,,,42,Male,52,001,2021_Mar_10_1906,cal_abstract,2020.2.4,59.97943908723039,
,Fix2,stimuli/School/30.jpg,right,,,,,,,,,,,0,40,40,40,,,,,,,,,,,,,,,,,,,,,,,,,,,,,,,,,,,405.4530819002539,None,405.4530819002539,None,left,0,0.9859516001306474,405.4530819002539,None,0,406.4749409002252,None,,,,,,,,,,,,,,,,,,,,,,,,,,,,,,,,,,,,,,,,,,,,,,,,,,,,,,,,,,,,,,,,,,,42,Male,52,001,2021_Mar_10_1906,cal_abstract,2020.2.4,59.97943908723039,
,Cond,stimuli/Smell/27.jpg,left,,,,,,,,,,,0,41,41,41,,,,,,,,,,,,,,,,,,,,,,,,,,,,,,,,,,,407.253208800219,None,407.253208800219,None,left,1,1.68019749969244,407.253208800219,None,1,408.9640663000755,None,,,,,,,,,,,,,,,,,,,,,,,,,,,,,,,,,,,,,,,,,,,,,,,,,,,,,,,,,,,,,,,,,,,42,Male,52,001,2021_Mar_10_1906,cal_abstract,2020.2.4,59.97943908723039,
,Cond,stimuli/Smell/35.jpg,right,,,,,,,,,,,0,42,42,42,,,,,,,,,,,,,,,,,,,,,,,,,,,,,,,,,,,409.7592605003156,None,409.7592605003156,None,left,0,2.4825653000734746,409.7592605003156,None,0,412.2671324000694,None,,,,,,,,,,,,,,,,,,,,,,,,,,,,,,,,,,,,,,,,,,,,,,,,,,,,,,,,,,,,,,,,,,,42,Male,52,001,2021_Mar_10_1906,cal_abstract,2020.2.4,59.97943908723039,
,Fix2,stimuli/School/35.jpg,right,,,,,,,,,,,0,43,43,43,,,,,,,,,,,,,,,,,,,,,,,,,,,,,,,,,,,413.0592670002952,None,413.0592670002952,None,right,1,3.922342599835247,413.0592670002952,None,1,417.0081191002391,None,,,,,,,,,,,,,,,,,,,,,,,,,,,,,,,,,,,,,,,,,,,,,,,,,,,,,,,,,,,,,,,,,,,42,Male,52,001,2021_Mar_10_1906,cal_abstract,2020.2.4,59.97943908723039,
,Cond,stimuli/Smell/34.jpg,left,,,,,,,,,,,0,44,44,44,,,,,,,,,,,,,,,,,,,,,,,,,,,,,,,,,,,417.77908240025863,None,417.77908240025863,None,left,1,1.9578559999354184,417.77908240025863,None,1,419.7533623003401,None,,,,,,,,,,,,,,,,,,,,,,,,,,,,,,,,,,,,,,,,,,,,,,,,,,,,,,,,,,,,,,,,,,,42,Male,52,001,2021_Mar_10_1906,cal_abstract,2020.2.4,59.97943908723039,
,Cond,stimuli/Smell/25.jpg,right,,,,,,,,,,,0,45,45,45,,,,,,,,,,,,,,,,,,,,,,,,,,,,,,,,,,,420.53536600014195,None,420.53536600014195,None,left,0,2.276482000015676,420.53536600014195,None,0,422.84205010021105,None,,,,,,,,,,,,,,,,,,,,,,,,,,,,,,,,,,,,,,,,,,,,,,,,,,,,,,,,,,,,,,,,,,,42,Male,52,001,2021_Mar_10_1906,cal_abstract,2020.2.4,59.97943908723039,
,Fix1,stimuli/Small/35.jpg,left,,,,,,,,,,,0,46,46,46,,,,,,,,,,,,,,,,,,,,,,,,,,,,,,,,,,,423.6247360003181,None,423.6247360003181,None,right,0,2.305601999629289,423.6247360003181,None,0,425.94838750036433,None,,,,,,,,,,,,,,,,,,,,,,,,,,,,,,,,,,,,,,,,,,,,,,,,,,,,,,,,,,,,,,,,,,,42,Male,52,001,2021_Mar_10_1906,cal_abstract,2020.2.4,59.97943908723039,
,Cond,stimuli/Smell/12.jpg,right,,,,,,,,,,,0,47,47,47,,,,,,,,,,,,,,,,,,,,,,,,,,,,,,,,,,,426.7195721999742,None,426.7195721999742,None,left,0,1.2047435999847949,426.7195721999742,None,0,427.94687720015645,None,,,,,,,,,,,,,,,,,,,,,,,,,,,,,,,,,,,,,,,,,,,,,,,,,,,,,,,,,,,,,,,,,,,42,Male,52,001,2021_Mar_10_1906,cal_abstract,2020.2.4,59.97943908723039,
,Fix1,stimuli/Small/24.jpg,left,,,,,,,,,,,0,48,48,48,,,,,,,,,,,,,,,,,,,,,,,,,,,,,,,,,,,428.7400017003529,None,428.7400017003529,None,left,1,1.512312499806285,428.7400017003529,None,1,430.2857659002766,None,,,,,,,,,,,,,,,,,,,,,,,,,,,,,,,,,,,,,,,,,,,,,,,,,,,,,,,,,,,,,,,,,,,42,Male,52,001,2021_Mar_10_1906,cal_abstract,2020.2.4,59.97943908723039,
,Fix2,stimuli/School/33.jpg,right,,,,,,,,,,,0,49,49,49,,,,,,,,,,,,,,,,,,,,,,,,,,,,,,,,,,,431.0800533001311,None,431.0800533001311,None,right,1,2.0290264999493957,431.0800533001311,None,1,433.1257175002247,None,,,,,,,,,,,,,,,,,,,,,,,,,,,,,,,,,,,,,,,,,,,,,,,,,,,,,,,,,,,,,,,,,,,42,Male,52,001,2021_Mar_10_1906,cal_abstract,2020.2.4,59.97943908723039,
,Fix2,stimuli/School/25.jpg,right,,,,,,,,,,,0,50,50,50,,,,,,,,,,,,,,,,,,,,,,,,,,,,,,,,,,,433.887943000067,None,433.887943000067,None,right,1,2.7811544998548925,433.887943000067,None,1,436.6896641999483,None,,,,,,,,,,,,,,,,,,,,,,,,,,,,,,,,,,,,,,,,,,,,,,,,,,,,,,,,,,,,,,,,,,,42,Male,52,001,2021_Mar_10_1906,cal_abstract,2020.2.4,59.97943908723039,
,Fix1,stimuli/Small/31.JPG,left,,,,,,,,,,,0,51,51,51,,,,,,,,,,,,,,,,,,,,,,,,,,,,,,,,,,,437.46447440003976,None,437.46447440003976,None,right,0,3.2089177002198994,437.46447440003976,None,0,440.705777999945,None,,,,,,,,,,,,,,,,,,,,,,,,,,,,,,,,,,,,,,,,,,,,,,,,,,,,,,,,,,,,,,,,,,,42,Male,52,001,2021_Mar_10_1906,cal_abstract,2020.2.4,59.97943908723039,
,Cond,stimuli/Smell/44.jpg,right,,,,,,,,,,,0,52,52,52,,,,,,,,,,,,,,,,,,,,,,,,,,,,,,,,,,,441.4783724001609,None,441.4783724001609,None,left,0,0.7130280998535454,441.4783724001609,None,0,442.2195446002297,None,,,,,,,,,,,,,,,,,,,,,,,,,,,,,,,,,,,,,,,,,,,,,,,,,,,,,,,,,,,,,,,,,,,42,Male,52,001,2021_Mar_10_1906,cal_abstract,2020.2.4,59.97943908723039,
,Fix2,stimuli/School/59.jpg,right,,,,,,,,,,,0,53,53,53,,,,,,,,,,,,,,,,,,,,,,,,,,,,,,,,,,,442.9988081003539,None,442.9988081003539,None,right,1,1.2551131998188794,442.9988081003539,None,1,444.2878940002993,None,,,,,,,,,,,,,,,,,,,,,,,,,,,,,,,,,,,,,,,,,,,,,,,,,,,,,,,,,,,,,,,,,,,42,Male,52,001,2021_Mar_10_1906,cal_abstract,2020.2.4,59.97943908723039,
,Cond,stimuli/Smell/31.jpg,left,,,,,,,,,,,0,54,54,54,,,,,,,,,,,,,,,,,,,,,,,,,,,,,,,,,,,445.08610510034487,None,445.08610510034487,None,right,0,0.9911861997097731,445.08610510034487,None,0,446.10533819999546,None,,,,,,,,,,,,,,,,,,,,,,,,,,,,,,,,,,,,,,,,,,,,,,,,,,,,,,,,,,,,,,,,,,,42,Male,52,001,2021_Mar_10_1906,cal_abstract,2020.2.4,59.97943908723039,
,Fix2,stimuli/School/36.jpg,right,,,,,,,,,,,0,55,55,55,,,,,,,,,,,,,,,,,,,,,,,,,,,,,,,,,,,446.8761149002239,None,446.8761149002239,None,left,0,1.2170754000544548,446.8761149002239,None,0,448.11571140028536,None,,,,,,,,,,,,,,,,,,,,,,,,,,,,,,,,,,,,,,,,,,,,,,,,,,,,,,,,,,,,,,,,,,,42,Male,52,001,2021_Mar_10_1906,cal_abstract,2020.2.4,59.97943908723039,
,Cond,stimuli/Smell/6.jpg,left,,,,,,,,,,,0,56,56,56,,,,,,,,,,,,,,,,,,,,,,,,,,,,,,,,,,,448.90690209995955,None,448.90690209995955,None,right,0,3.6496557001955807,448.90690209995955,None,0,452.57928170030937,None,,,,,,,,,,,,,,,,,,,,,,,,,,,,,,,,,,,,,,,,,,,,,,,,,,,,,,,,,,,,,,,,,,,42,Male,52,001,2021_Mar_10_1906,cal_abstract,2020.2.4,59.97943908723039,
,Fix1,stimuli/Small/53.jpg,left,,,,,,,,,,,0,57,57,57,,,,,,,,,,,,,,,,,,,,,,,,,,,,,,,,,,,453.37462530005723,None,453.37462530005723,None,left,1,1.272339599672705,453.37462530005723,None,1,454.68259270023555,None,,,,,,,,,,,,,,,,,,,,,,,,,,,,,,,,,,,,,,,,,,,,,,,,,,,,,,,,,,,,,,,,,,,42,Male,52,001,2021_Mar_10_1906,cal_abstract,2020.2.4,59.97943908723039,
,Fix1,stimuli/Small/21.jpg,left,,,,,,,,,,,0,58,58,58,,,,,,,,,,,,,,,,,,,,,,,,,,,,,,,,,,,455.4569812002592,None,455.4569812002592,None,right,0,0.6753568998537958,455.4569812002592,None,0,456.1598890000023,None,,,,,,,,,,,,,,,,,,,,,,,,,,,,,,,,,,,,,,,,,,,,,,,,,,,,,,,,,,,,,,,,,,,42,Male,52,001,2021_Mar_10_1906,cal_abstract,2020.2.4,59.97943908723039,
,Fix1,stimuli/Small/18.jpg,left,,,,,,,,,,,0,59,59,59,,,,,,,,,,,,,,,,,,,,,,,,,,,,,,,,,,,456.9329069000669,None,456.9329069000669,None,right,0,0.7618362000212073,456.9329069000669,None,0,457.722124400083,None,,,,,,,,,,,,,,,,,,,,,,,,,,,,,,,,,,,,,,,,,,,,,,,,,,,,,,,,,,,,,,,,,,,42,Male,52,001,2021_Mar_10_1906,cal_abstract,2020.2.4,59.97943908723039,
,Fix2,stimuli/School/20.jpg,right,,,,,,,,,,,0,60,60,60,,,,,,,,,,,,,,,,,,,,,,,,,,,,,,,,,,,458.4824936003424,None,458.4824936003424,None,left,0,1.2915022000670433,458.4824936003424,None,0,459.8042158000171,None,,,,,,,,,,,,,,,,,,,,,,,,,,,,,,,,,,,,,,,,,,,,,,,,,,,,,,,,,,,,,,,,,,,42,Male,52,001,2021_Mar_10_1906,cal_abstract,2020.2.4,59.97943908723039,
,Cond,stimuli/Smell/50.jpg,left,,,,,,,,,,,0,61,61,61,,,,,,,,,,,,,,,,,,,,,,,,,,,,,,,,,,,460.58855350036174,None,460.58855350036174,None,right,0,2.216691500041634,460.58855350036174,None,0,462.83517180010676,None,,,,,,,,,,,,,,,,,,,,,,,,,,,,,,,,,,,,,,,,,,,,,,,,,,,,,,,,,,,,,,,,,,,42,Male,52,001,2021_Mar_10_1906,cal_abstract,2020.2.4,59.97943908723039,
,Fix2,stimuli/School/29.jpg,right,,,,,,,,,,,0,62,62,62,,,,,,,,,,,,,,,,,,,,,,,,,,,,,,,,,,,463.6146464999765,None,463.6146464999765,None,left,0,1.2917124000377953,463.6146464999765,None,0,464.93496450036764,None,,,,,,,,,,,,,,,,,,,,,,,,,,,,,,,,,,,,,,,,,,,,,,,,,,,,,,,,,,,,,,,,,,,42,Male,52,001,2021_Mar_10_1906,cal_abstract,2020.2.4,59.97943908723039,
,Fix2,stimuli/School/52.jpg,right,,,,,,,,,,,0,63,63,63,,,,,,,,,,,,,,,,,,,,,,,,,,,,,,,,,,,465.7159679001197,None,465.7159679001197,None,right,1,2.719044799916446,465.7159679001197,None,1,468.4728258000687,None,,,,,,,,,,,,,,,,,,,,,,,,,,,,,,,,,,,,,,,,,,,,,,,,,,,,,,,,,,,,,,,,,,,42,Male,52,001,2021_Mar_10_1906,cal_abstract,2020.2.4,59.97943908723039,
,Fix1,stimuli/Small/12.jpg,left,,,,,,,,,,,0,64,64,64,,,,,,,,,,,,,,,,,,,,,,,,,,,,,,,,,,,469.25053500011563,None,469.25053500011563,None,right,0,1.8451697998680174,469.25053500011563,None,0,471.11985700018704,None,,,,,,,,,,,,,,,,,,,,,,,,,,,,,,,,,,,,,,,,,,,,,,,,,,,,,,,,,,,,,,,,,,,42,Male,52,001,2021_Mar_10_1906,cal_abstract,2020.2.4,59.97943908723039,
,Fix1,stimuli/Small/27.jpg,left,,,,,,,,,,,0,65,65,65,,,,,,,,,,,,,,,,,,,,,,,,,,,,,,,,,,,471.8906970000826,None,471.8906970000826,None,left,1,1.4965559002012014,471.8906970000826,None,1,473.41394490003586,None,,,,,,,,,,,,,,,,,,,,,,,,,,,,,,,,,,,,,,,,,,,,,,,,,,,,,,,,,,,,,,,,,,,42,Male,52,001,2021_Mar_10_1906,cal_abstract,2020.2.4,59.97943908723039,
,Fix2,stimuli/School/13.jpg,right,,,,,,,,,,,0,66,66,66,,,,,,,,,,,,,,,,,,,,,,,,,,,,,,,,,,,474.2074289000593,None,474.2074289000593,None,left,0,3.6329657998867333,474.2074289000593,None,0,477.8586980002001,None,,,,,,,,,,,,,,,,,,,,,,,,,,,,,,,,,,,,,,,,,,,,,,,,,,,,,,,,,,,,,,,,,,,42,Male,52,001,2021_Mar_10_1906,cal_abstract,2020.2.4,59.97943908723039,
,Cond,stimuli/Smell/10.jpg,left,,,,,,,,,,,0,67,67,67,,,,,,,,,,,,,,,,,,,,,,,,,,,,,,,,,,,478.64080179994926,None,478.64080179994926,None,right,0,1.7345068999566138,478.64080179994926,None,0,480.403505100403,None,,,,,,,,,,,,,,,,,,,,,,,,,,,,,,,,,,,,,,,,,,,,,,,,,,,,,,,,,,,,,,,,,,,42,Male,52,001,2021_Mar_10_1906,cal_abstract,2020.2.4,59.97943908723039,
,Fix1,stimuli/Small/56.jpg,left,,,,,,,,,,,0,68,68,68,,,,,,,,,,,,,,,,,,,,,,,,,,,,,,,,,,,481.18970920005813,None,481.18970920005813,None,left,1,1.1234611999243498,481.18970920005813,None,1,482.34033820033073,None,,,,,,,,,,,,,,,,,,,,,,,,,,,,,,,,,,,,,,,,,,,,,,,,,,,,,,,,,,,,,,,,,,,42,Male,52,001,2021_Mar_10_1906,cal_abstract,2020.2.4,59.97943908723039,
,Fix1,stimuli/Small/43.jpg,left,,,,,,,,,,,0,69,69,69,,,,,,,,,,,,,,,,,,,,,,,,,,,,,,,,,,,483.133091900032,None,483.133091900032,None,left,1,0.9112186999991536,483.133091900032,None,1,484.0673936000094,None,,,,,,,,,,,,,,,,,,,,,,,,,,,,,,,,,,,,,,,,,,,,,,,,,,,,,,,,,,,,,,,,,,,42,Male,52,001,2021_Mar_10_1906,cal_abstract,2020.2.4,59.97943908723039,
,Fix2,stimuli/School/18.jpg,right,,,,,,,,,,,0,70,70,70,,,,,,,,,,,,,,,,,,,,,,,,,,,,,,,,,,,484.8457659003325,None,484.8457659003325,None,right,1,0.6246553999371827,484.8457659003325,None,1,485.499749999959,None,,,,,,,,,,,,,,,,,,,,,,,,,,,,,,,,,,,,,,,,,,,,,,,,,,,,,,,,,,,,,,,,,,,42,Male,52,001,2021_Mar_10_1906,cal_abstract,2020.2.4,59.97943908723039,
,Fix2,stimuli/School/49.jpg,right,,,,,,,,,,,0,71,71,71,,,,,,,,,,,,,,,,,,,,,,,,,,,,,,,,,,,486.277495900169,None,486.277495900169,None,right,1,5.384173099882901,486.277495900169,None,1,491.6812837002799,None,,,,,,,,,,,,,,,,,,,,,,,,,,,,,,,,,,,,,,,,,,,,,,,,,,,,,,,,,,,,,,,,,,,42,Male,52,001,2021_Mar_10_1906,cal_abstract,2020.2.4,59.97943908723039,
,Fix2,stimuli/School/45.jpg,right,,,,,,,,,,,0,72,72,72,,,,,,,,,,,,,,,,,,,,,,,,,,,,,,,,,,,492.47946320008487,None,492.47946320008487,None,left,0,2.639790900051594,492.47946320008487,None,0,495.1504609002732,None,,,,,,,,,,,,,,,,,,,,,,,,,,,,,,,,,,,,,,,,,,,,,,,,,,,,,,,,,,,,,,,,,,,42,Male,52,001,2021_Mar_10_1906,cal_abstract,2020.2.4,59.97943908723039,
,Fix1,stimuli/Small/37.jpg,left,,,,,,,,,,,0,73,73,73,,,,,,,,,,,,,,,,,,,,,,,,,,,,,,,,,,,495.94224780006334,None,495.94224780006334,None,right,0,1.1946167000569403,495.94224780006334,None,0,497.1566490000114,None,,,,,,,,,,,,,,,,,,,,,,,,,,,,,,,,,,,,,,,,,,,,,,,,,,,,,,,,,,,,,,,,,,,42,Male,52,001,2021_Mar_10_1906,cal_abstract,2020.2.4,59.97943908723039,
,Cond,stimuli/Smell/19.jpg,right,,,,,,,,,,,0,74,74,74,,,,,,,,,,,,,,,,,,,,,,,,,,,,,,,,,,,497.9477107003331,None,497.9477107003331,None,left,0,2.990135199856013,497.9477107003331,None,0,500.95369850005955,None,,,,,,,,,,,,,,,,,,,,,,,,,,,,,,,,,,,,,,,,,,,,,,,,,,,,,,,,,,,,,,,,,,,42,Male,52,001,2021_Mar_10_1906,cal_abstract,2020.2.4,59.97943908723039,
,Fix1,stimuli/Small/5.jpg,left,,,,,,,,,,,0,75,75,75,,,,,,,,,,,,,,,,,,,,,,,,,,,,,,,,,,,501.73369220038876,None,501.73369220038876,None,right,0,0.6942646997049451,501.73369220038876,None,0,502.4523026002571,None,,,,,,,,,,,,,,,,,,,,,,,,,,,,,,,,,,,,,,,,,,,,,,,,,,,,,,,,,,,,,,,,,,,42,Male,52,001,2021_Mar_10_1906,cal_abstract,2020.2.4,59.97943908723039,
,Fix2,stimuli/School/22.jpg,right,,,,,,,,,,,0,76,76,76,,,,,,,,,,,,,,,,,,,,,,,,,,,,,,,,,,,503.21564309997484,None,503.21564309997484,None,right,1,1.2794530000537634,503.21564309997484,None,1,504.5258295000531,None,,,,,,,,,,,,,,,,,,,,,,,,,,,,,,,,,,,,,,,,,,,,,,,,,,,,,,,,,,,,,,,,,,,42,Male,52,001,2021_Mar_10_1906,cal_abstract,2020.2.4,59.97943908723039,
,Fix2,stimuli/School/17.jpg,right,,,,,,,,,,,0,77,77,77,,,,,,,,,,,,,,,,,,,,,,,,,,,,,,,,,,,505.30711510032415,None,505.30711510032415,None,left,0,1.9526136997155845,505.30711510032415,None,0,507.2838272000663,None,,,,,,,,,,,,,,,,,,,,,,,,,,,,,,,,,,,,,,,,,,,,,,,,,,,,,,,,,,,,,,,,,,,42,Male,52,001,2021_Mar_10_1906,cal_abstract,2020.2.4,59.97943908723039,
,Cond,stimuli/Smell/52.jpg,left,,,,,,,,,,,0,78,78,78,,,,,,,,,,,,,,,,,,,,,,,,,,,,,,,,,,,508.0623076003976,None,508.0623076003976,None,left,1,1.3156522000208497,508.0623076003976,None,1,509.4013143000193,None,,,,,,,,,,,,,,,,,,,,,,,,,,,,,,,,,,,,,,,,,,,,,,,,,,,,,,,,,,,,,,,,,,,42,Male,52,001,2021_Mar_10_1906,cal_abstract,2020.2.4,59.97943908723039,
,Fix2,stimuli/School/57.jpg,right,,,,,,,,,,,0,79,79,79,,,,,,,,,,,,,,,,,,,,,,,,,,,,,,,,,,,510.1848621000536,None,510.1848621000536,None,right,1,3.1734496001154184,510.1848621000536,None,1,513.3773078001104,None,,,,,,,,,,,,,,,,,,,,,,,,,,,,,,,,,,,,,,,,,,,,,,,,,,,,,,,,,,,,,,,,,,,42,Male,52,001,2021_Mar_10_1906,cal_abstract,2020.2.4,59.97943908723039,
,Fix1,stimuli/Small/29.jpg,left,,,,,,,,,,,0,80,80,80,,,,,,,,,,,,,,,,,,,,,,,,,,,,,,,,,,,514.1543976999819,None,514.1543976999819,None,right,0,3.974534799810499,514.1543976999819,None,0,518.1640486000106,None,,,,,,,,,,,,,,,,,,,,,,,,,,,,,,,,,,,,,,,,,,,,,,,,,,,,,,,,,,,,,,,,,,,42,Male,52,001,2021_Mar_10_1906,cal_abstract,2020.2.4,59.97943908723039,
,Fix1,stimuli/Small/34.jpg,left,,,,,,,,,,,0,81,81,81,,,,,,,,,,,,,,,,,,,,,,,,,,,,,,,,,,,518.9397843000479,None,518.9397843000479,None,left,1,2.1407849001698196,518.9397843000479,None,1,521.1047895001248,None,,,,,,,,,,,,,,,,,,,,,,,,,,,,,,,,,,,,,,,,,,,,,,,,,,,,,,,,,,,,,,,,,,,42,Male,52,001,2021_Mar_10_1906,cal_abstract,2020.2.4,59.97943908723039,
,Fix1,stimuli/Small/14.jpg,left,,,,,,,,,,,0,82,82,82,,,,,,,,,,,,,,,,,,,,,,,,,,,,,,,,,,,521.8997639999725,None,521.8997639999725,None,left,1,2.9379249000921845,521.8997639999725,None,1,524.8659996003844,None,,,,,,,,,,,,,,,,,,,,,,,,,,,,,,,,,,,,,,,,,,,,,,,,,,,,,,,,,,,,,,,,,,,42,Male,52,001,2021_Mar_10_1906,cal_abstract,2020.2.4,59.97943908723039,
,Cond,stimuli/Smell/46.jpg,right,,,,,,,,,,,0,83,83,83,,,,,,,,,,,,,,,,,,,,,,,,,,,,,,,,,,,525.6517007001676,None,525.6517007001676,None,right,1,0.9642063998617232,525.6517007001676,None,1,526.6364748999476,None,,,,,,,,,,,,,,,,,,,,,,,,,,,,,,,,,,,,,,,,,,,,,,,,,,,,,,,,,,,,,,,,,,,42,Male,52,001,2021_Mar_10_1906,cal_abstract,2020.2.4,59.97943908723039,
,Fix2,stimuli/School/32.jpg,right,,,,,,,,,,,0,84,84,84,,,,,,,,,,,,,,,,,,,,,,,,,,,,,,,,,,,527.4119877000339,None,527.4119877000339,None,right,1,2.455110799986869,527.4119877000339,None,1,529.896690200083,None,,,,,,,,,,,,,,,,,,,,,,,,,,,,,,,,,,,,,,,,,,,,,,,,,,,,,,,,,,,,,,,,,,,42,Male,52,001,2021_Mar_10_1906,cal_abstract,2020.2.4,59.97943908723039,
,Cond,stimuli/Smell/33.jpg,left,,,,,,,,,,,0,85,85,85,,,,,,,,,,,,,,,,,,,,,,,,,,,,,,,,,,,530.6757047004066,None,530.6757047004066,None,left,1,1.078967200126499,530.6757047004066,None,1,531.7782758004032,None,,,,,,,,,,,,,,,,,,,,,,,,,,,,,,,,,,,,,,,,,,,,,,,,,,,,,,,,,,,,,,,,,,,42,Male,52,001,2021_Mar_10_1906,cal_abstract,2020.2.4,59.97943908723039,
,Fix2,stimuli/School/37.jpg,right,,,,,,,,,,,0,86,86,86,,,,,,,,,,,,,,,,,,,,,,,,,,,,,,,,,,,532.5415706001222,None,532.5415706001222,None,right,1,0.8546046996489167,532.5415706001222,None,1,533.4290173002519,None,,,,,,,,,,,,,,,,,,,,,,,,,,,,,,,,,,,,,,,,,,,,,,,,,,,,,,,,,,,,,,,,,,,42,Male,52,001,2021_Mar_10_1906,cal_abstract,2020.2.4,59.97943908723039,
,Cond,stimuli/Smell/14.jpg,left,,,,,,,,,,,0,87,87,87,,,,,,,,,,,,,,,,,,,,,,,,,,,,,,,,,,,534.2116157002747,None,534.2116157002747,None,left,1,1.9430439001880586,534.2116157002747,None,1,536.174648700282,None,,,,,,,,,,,,,,,,,,,,,,,,,,,,,,,,,,,,,,,,,,,,,,,,,,,,,,,,,,,,,,,,,,,42,Male,52,001,2021_Mar_10_1906,cal_abstract,2020.2.4,59.97943908723039,
,Fix2,stimuli/School/11.jpg,right,,,,,,,,,,,0,88,88,88,,,,,,,,,,,,,,,,,,,,,,,,,,,,,,,,,,,536.949398000259,None,536.949398000259,None,left,0,4.070916700176895,536.949398000259,None,0,541.0463825003244,None,,,,,,,,,,,,,,,,,,,,,,,,,,,,,,,,,,,,,,,,,,,,,,,,,,,,,,,,,,,,,,,,,,,42,Male,52,001,2021_Mar_10_1906,cal_abstract,2020.2.4,59.97943908723039,
,Cond,stimuli/Smell/8.jpg,left,,,,,,,,,,,0,89,89,89,,,,,,,,,,,,,,,,,,,,,,,,,,,,,,,,,,,541.816344700288,None,541.816344700288,None,right,0,1.5630505001172423,541.816344700288,None,0,543.4021004000679,None,,,,,,,,,,,,,,,,,,,,,,,,,,,,,,,,,,,,,,,,,,,,,,,,,,,,,,,,,,,,,,,,,,,42,Male,52,001,2021_Mar_10_1906,cal_abstract,2020.2.4,59.97943908723039,
,Fix2,stimuli/School/34.jpg,right,,,,,,,,,,,0,90,90,90,,,,,,,,,,,,,,,,,,,,,,,,,,,,,,,,,,,544.1870985003188,None,544.1870985003188,None,left,0,1.631408500019461,544.1870985003188,None,0,545.8499639001675,None,,,,,,,,,,,,,,,,,,,,,,,,,,,,,,,,,,,,,,,,,,,,,,,,,,,,,,,,,,,,,,,,,,,42,Male,52,001,2021_Mar_10_1906,cal_abstract,2020.2.4,59.97943908723039,
,Fix1,stimuli/Small/60.jpg,left,,,,,,,,,,,0,91,91,91,,,,,,,,,,,,,,,,,,,,,,,,,,,,,,,,,,,546.6184404003434,None,546.6184404003434,None,left,1,1.8589025000110269,546.6184404003434,None,1,548.5063326000236,None,,,,,,,,,,,,,,,,,,,,,,,,,,,,,,,,,,,,,,,,,,,,,,,,,,,,,,,,,,,,,,,,,,,42,Male,52,001,2021_Mar_10_1906,cal_abstract,2020.2.4,59.97943908723039,
,Fix2,stimuli/School/21.jpg,right,,,,,,,,,,,0,92,92,92,,,,,,,,,,,,,,,,,,,,,,,,,,,,,,,,,,,549.2924429001287,None,549.2924429001287,None,right,1,0.9486292996443808,549.2924429001287,None,1,550.2636549002491,None,,,,,,,,,,,,,,,,,,,,,,,,,,,,,,,,,,,,,,,,,,,,,,,,,,,,,,,,,,,,,,,,,,,42,Male,52,001,2021_Mar_10_1906,cal_abstract,2020.2.4,59.97943908723039,
,Cond,stimuli/Smell/32.jpg,left,,,,,,,,,,,0,93,93,93,,,,,,,,,,,,,,,,,,,,,,,,,,,,,,,,,,,551.0397982001305,None,551.0397982001305,None,right,0,2.0501935998909175,551.0397982001305,None,0,553.1265680999495,None,,,,,,,,,,,,,,,,,,,,,,,,,,,,,,,,,,,,,,,,,,,,,,,,,,,,,,,,,,,,,,,,,,,42,Male,52,001,2021_Mar_10_1906,cal_abstract,2020.2.4,59.97943908723039,
,Fix1,stimuli/Small/33.jpg,left,,,,,,,,,,,0,94,94,94,,,,,,,,,,,,,,,,,,,,,,,,,,,,,,,,,,,553.9079549000598,None,553.9079549000598,None,left,1,2.934501000214368,553.9079549000598,None,1,556.8757442003116,None,,,,,,,,,,,,,,,,,,,,,,,,,,,,,,,,,,,,,,,,,,,,,,,,,,,,,,,,,,,,,,,,,,,42,Male,52,001,2021_Mar_10_1906,cal_abstract,2020.2.4,59.97943908723039,
,Cond,stimuli/Smell/26.jpg,right,,,,,,,,,,,0,95,95,95,,,,,,,,,,,,,,,,,,,,,,,,,,,,,,,,,,,557.6692166002467,None,557.6692166002467,None,right,1,2.134999300353229,557.6692166002467,None,1,559.8220143001527,None,,,,,,,,,,,,,,,,,,,,,,,,,,,,,,,,,,,,,,,,,,,,,,,,,,,,,,,,,,,,,,,,,,,42,Male,52,001,2021_Mar_10_1906,cal_abstract,2020.2.4,59.97943908723039,
,Fix1,stimuli/Small/54.jpg,left,,,,,,,,,,,0,96,96,96,,,,,,,,,,,,,,,,,,,,,,,,,,,,,,,,,,,560.6001054001972,None,560.6001054001972,None,right,0,0.8201738996431231,560.6001054001972,None,0,561.4416550002061,None,,,,,,,,,,,,,,,,,,,,,,,,,,,,,,,,,,,,,,,,,,,,,,,,,,,,,,,,,,,,,,,,,,,42,Male,52,001,2021_Mar_10_1906,cal_abstract,2020.2.4,59.97943908723039,
,Cond,stimuli/Smell/4.jpg,right,,,,,,,,,,,0,97,97,97,,,,,,,,,,,,,,,,,,,,,,,,,,,,,,,,,,,562.228722400032,None,562.228722400032,None,right,1,0.6945909997448325,562.228722400032,None,1,562.9551691003144,None,,,,,,,,,,,,,,,,,,,,,,,,,,,,,,,,,,,,,,,,,,,,,,,,,,,,,,,,,,,,,,,,,,,42,Male,52,001,2021_Mar_10_1906,cal_abstract,2020.2.4,59.97943908723039,
,Fix1,stimuli/Small/51.jpg,left,,,,,,,,,,,0,98,98,98,,,,,,,,,,,,,,,,,,,,,,,,,,,,,,,,,,,563.7320715002716,None,563.7320715002716,None,left,1,2.3748770002275705,563.7320715002716,None,1,566.1350047001615,None,,,,,,,,,,,,,,,,,,,,,,,,,,,,,,,,,,,,,,,,,,,,,,,,,,,,,,,,,,,,,,,,,,,42,Male,52,001,2021_Mar_10_1906,cal_abstract,2020.2.4,59.97943908723039,
,Fix1,stimuli/Small/0.jpg,left,,,,,,,,,,,0,99,99,99,,,,,,,,,,,,,,,,,,,,,,,,,,,,,,,,,,,566.9135041004047,None,566.9135041004047,None,right,0,1.2311365995556116,566.9135041004047,None,0,568.1751518002711,None,,,,,,,,,,,,,,,,,,,,,,,,,,,,,,,,,,,,,,,,,,,,,,,,,,,,,,,,,,,,,,,,,,,42,Male,52,001,2021_Mar_10_1906,cal_abstract,2020.2.4,59.97943908723039,
,Cond,stimuli/Smell/40.jpg,right,,,,,,,,,,,0,100,100,100,,,,,,,,,,,,,,,,,,,,,,,,,,,,,,,,,,,568.9503425001167,None,568.9503425001167,None,left,0,1.1588400998152792,568.9503425001167,None,0,570.1323728002608,None,,,,,,,,,,,,,,,,,,,,,,,,,,,,,,,,,,,,,,,,,,,,,,,,,,,,,,,,,,,,,,,,,,,42,Male,52,001,2021_Mar_10_1906,cal_abstract,2020.2.4,59.97943908723039,
,Cond,stimuli/Smell/22.jpg,left,,,,,,,,,,,0,101,101,101,,,,,,,,,,,,,,,,,,,,,,,,,,,,,,,,,,,570.9126196000725,None,570.9126196000725,None,left,1,1.8351298002526164,570.9126196000725,None,1,572.7845842000097,None,,,,,,,,,,,,,,,,,,,,,,,,,,,,,,,,,,,,,,,,,,,,,,,,,,,,,,,,,,,,,,,,,,,42,Male,52,001,2021_Mar_10_1906,cal_abstract,2020.2.4,59.97943908723039,
,Fix1,stimuli/Small/57.jpg,left,,,,,,,,,,,0,102,102,102,,,,,,,,,,,,,,,,,,,,,,,,,,,,,,,,,,,573.5816868999973,None,573.5816868999973,None,left,1,2.3343711998313665,573.5816868999973,None,1,575.9413234000094,None,,,,,,,,,,,,,,,,,,,,,,,,,,,,,,,,,,,,,,,,,,,,,,,,,,,,,,,,,,,,,,,,,,,42,Male,52,001,2021_Mar_10_1906,cal_abstract,2020.2.4,59.97943908723039,
,Cond,stimuli/Smell/51.jpg,right,,,,,,,,,,,0,103,103,103,,,,,,,,,,,,,,,,,,,,,,,,,,,,,,,,,,,576.7100524003617,None,576.7100524003617,None,left,0,1.0389074003323913,576.7100524003617,None,0,577.7829714999534,None,,,,,,,,,,,,,,,,,,,,,,,,,,,,,,,,,,,,,,,,,,,,,,,,,,,,,,,,,,,,,,,,,,,42,Male,52,001,2021_Mar_10_1906,cal_abstract,2020.2.4,59.97943908723039,
,Fix1,stimuli/Small/3.jpg,left,,,,,,,,,,,0,104,104,104,,,,,,,,,,,,,,,,,,,,,,,,,,,,,,,,,,,578.5467769000679,None,578.5467769000679,None,right,0,1.7240674002096057,578.5467769000679,None,0,580.2876634001732,None,,,,,,,,,,,,,,,,,,,,,,,,,,,,,,,,,,,,,,,,,,,,,,,,,,,,,,,,,,,,,,,,,,,42,Male,52,001,2021_Mar_10_1906,cal_abstract,2020.2.4,59.97943908723039,
,Cond,stimuli/Smell/49.jpg,right,,,,,,,,,,,0,105,105,105,,,,,,,,,,,,,,,,,,,,,,,,,,,,,,,,,,,581.0475318003446,None,581.0475318003446,None,left,0,0.7788717998191714,581.0475318003446,None,0,581.8537409002893,None,,,,,,,,,,,,,,,,,,,,,,,,,,,,,,,,,,,,,,,,,,,,,,,,,,,,,,,,,,,,,,,,,,,42,Male,52,001,2021_Mar_10_1906,cal_abstract,2020.2.4,59.97943908723039,
,Fix2,stimuli/School/10.jpg,right,,,,,,,,,,,0,106,106,106,,,,,,,,,,,,,,,,,,,,,,,,,,,,,,,,,,,582.6378588001244,None,582.6378588001244,None,right,1,92.20111780008301,582.6378588001244,None,1,674.8700087000616,None,,,,,,,,,,,,,,,,,,,,,,,,,,,,,,,,,,,,,,,,,,,,,,,,,,,,,,,,,,,,,,,,,,,42,Male,52,001,2021_Mar_10_1906,cal_abstract,2020.2.4,59.97943908723039,
,Fix2,stimuli/School/24.jpg,right,,,,,,,,,,,0,107,107,107,,,,,,,,,,,,,,,,,,,,,,,,,,,,,,,,,,,675.6672392999753,None,675.6672392999753,None,left,0,3.418400499969721,675.6672392999753,None,0,679.1168055003509,None,,,,,,,,,,,,,,,,,,,,,,,,,,,,,,,,,,,,,,,,,,,,,,,,,,,,,,,,,,,,,,,,,,,42,Male,52,001,2021_Mar_10_1906,cal_abstract,2020.2.4,59.97943908723039,
,Fix1,stimuli/Small/46.jpg,left,,,,,,,,,,,0,108,108,108,,,,,,,,,,,,,,,,,,,,,,,,,,,,,,,,,,,679.8912210003473,None,679.8912210003473,None,left,1,3.3377641001716256,679.8912210003473,None,1,683.2585061001591,None,,,,,,,,,,,,,,,,,,,,,,,,,,,,,,,,,,,,,,,,,,,,,,,,,,,,,,,,,,,,,,,,,,,42,Male,52,001,2021_Mar_10_1906,cal_abstract,2020.2.4,59.97943908723039,
,Cond,stimuli/Smell/41.jpg,right,,,,,,,,,,,0,109,109,109,,,,,,,,,,,,,,,,,,,,,,,,,,,,,,,,,,,684.0298679000698,None,684.0298679000698,None,left,0,3.4563242997974157,684.0298679000698,None,0,687.5160698001273,None,,,,,,,,,,,,,,,,,,,,,,,,,,,,,,,,,,,,,,,,,,,,,,,,,,,,,,,,,,,,,,,,,,,42,Male,52,001,2021_Mar_10_1906,cal_abstract,2020.2.4,59.97943908723039,
,Fix2,stimuli/School/8.jpg,right,,,,,,,,,,,0,110,110,110,,,,,,,,,,,,,,,,,,,,,,,,,,,,,,,,,,,688.3013172000647,None,688.3013172000647,None,right,1,3.3300482998602092,688.3013172000647,None,1,691.6556047000922,None,,,,,,,,,,,,,,,,,,,,,,,,,,,,,,,,,,,,,,,,,,,,,,,,,,,,,,,,,,,,,,,,,,,42,Male,52,001,2021_Mar_10_1906,cal_abstract,2020.2.4,59.97943908723039,
,Fix2,stimuli/School/19.jpg,right,,,,,,,,,,,0,111,111,111,,,,,,,,,,,,,,,,,,,,,,,,,,,,,,,,,,,692.4337178003043,None,692.4337178003043,None,right,1,2.1056559002026916,692.4337178003043,None,1,694.5612938003615,None,,,,,,,,,,,,,,,,,,,,,,,,,,,,,,,,,,,,,,,,,,,,,,,,,,,,,,,,,,,,,,,,,,,42,Male,52,001,2021_Mar_10_1906,cal_abstract,2020.2.4,59.97943908723039,
,Cond,stimuli/Smell/7.jpg,left,,,,,,,,,,,0,112,112,112,,,,,,,,,,,,,,,,,,,,,,,,,,,,,,,,,,,695.3262204001658,None,695.3262204001658,None,right,0,2.054312000051141,695.3262204001658,None,0,697.4174926001579,None,,,,,,,,,,,,,,,,,,,,,,,,,,,,,,,,,,,,,,,,,,,,,,,,,,,,,,,,,,,,,,,,,,,42,Male,52,001,2021_Mar_10_1906,cal_abstract,2020.2.4,59.97943908723039,
,Fix2,stimuli/School/27.jpg,right,,,,,,,,,,,0,113,113,113,,,,,,,,,,,,,,,,,,,,,,,,,,,,,,,,,,,698.1891705002636,None,698.1891705002636,None,left,0,2.7890236997045577,698.1891705002636,None,0,701.0086325001903,None,,,,,,,,,,,,,,,,,,,,,,,,,,,,,,,,,,,,,,,,,,,,,,,,,,,,,,,,,,,,,,,,,,,42,Male,52,001,2021_Mar_10_1906,cal_abstract,2020.2.4,59.97943908723039,
,Fix2,stimuli/School/16.jpg,right,,,,,,,,,,,0,114,114,114,,,,,,,,,,,,,,,,,,,,,,,,,,,,,,,,,,,701.7974273003638,None,701.7974273003638,None,right,1,4.190562000032514,701.7974273003638,None,1,706.0315372003242,None,,,,,,,,,,,,,,,,,,,,,,,,,,,,,,,,,,,,,,,,,,,,,,,,,,,,,,,,,,,,,,,,,,,42,Male,52,001,2021_Mar_10_1906,cal_abstract,2020.2.4,59.97943908723039,
,Fix1,stimuli/Small/38.jpg,left,,,,,,,,,,,0,115,115,115,,,,,,,,,,,,,,,,,,,,,,,,,,,,,,,,,,,706.8110060002655,None,706.8110060002655,None,right,0,2.6527968998998404,706.8110060002655,None,0,709.4844750999473,None,,,,,,,,,,,,,,,,,,,,,,,,,,,,,,,,,,,,,,,,,,,,,,,,,,,,,,,,,,,,,,,,,,,42,Male,52,001,2021_Mar_10_1906,cal_abstract,2020.2.4,59.97943908723039,
,Cond,stimuli/Smell/55.jpg,right,,,,,,,,,,,0,116,116,116,,,,,,,,,,,,,,,,,,,,,,,,,,,,,,,,,,,710.2762283002958,None,710.2762283002958,None,left,0,1.3951803999952972,710.2762283002958,None,0,711.6972260000184,None,,,,,,,,,,,,,,,,,,,,,,,,,,,,,,,,,,,,,,,,,,,,,,,,,,,,,,,,,,,,,,,,,,,42,Male,52,001,2021_Mar_10_1906,cal_abstract,2020.2.4,59.97943908723039,
,Fix1,stimuli/Small/45.jpg,left,,,,,,,,,,,0,117,117,117,,,,,,,,,,,,,,,,,,,,,,,,,,,,,,,,,,,712.4674714002758,None,712.4674714002758,None,right,0,4.917970200069249,712.4674714002758,None,0,717.4093503002077,None,,,,,,,,,,,,,,,,,,,,,,,,,,,,,,,,,,,,,,,,,,,,,,,,,,,,,,,,,,,,,,,,,,,42,Male,52,001,2021_Mar_10_1906,cal_abstract,2020.2.4,59.97943908723039,
,Cond,stimuli/Smell/9.jpg,right,,,,,,,,,,,0,118,118,118,,,,,,,,,,,,,,,,,,,,,,,,,,,,,,,,,,,718.1839374001138,None,718.1839374001138,None,right,1,2.5349361998960376,718.1839374001138,None,1,720.7416464001872,None,,,,,,,,,,,,,,,,,,,,,,,,,,,,,,,,,,,,,,,,,,,,,,,,,,,,,,,,,,,,,,,,,,,42,Male,52,001,2021_Mar_10_1906,cal_abstract,2020.2.4,59.97943908723039,
,Fix2,stimuli/School/44.jpg,right,,,,,,,,,,,0,119,119,119,,,,,,,,,,,,,,,,,,,,,,,,,,,,,,,,,,,721.5289965001866,None,721.5289965001866,None,right,1,1.0224169003777206,721.5289965001866,None,1,722.5740815000609,None,,,,,,,,,,,,,,,,,,,,,,,,,,,,,,,,,,,,,,,,,,,,,,,,,,,,,,,,,,,,,,,,,,,42,Male,52,001,2021_Mar_10_1906,cal_abstract,2020.2.4,59.97943908723039,
,Fix2,stimuli/School/38.jpg,right,,,,,,,,,,,0,120,120,120,,,,,,,,,,,,,,,,,,,,,,,,,,,,,,,,,,,723.3550105001777,None,723.3550105001777,None,right,1,1.4206816996447742,723.3550105001777,None,1,724.8031922001392,None,,,,,,,,,,,,,,,,,,,,,,,,,,,,,,,,,,,,,,,,,,,,,,,,,,,,,,,,,,,,,,,,,,,42,Male,52,001,2021_Mar_10_1906,cal_abstract,2020.2.4,59.97943908723039,
,Fix1,stimuli/Small/1.jpg,left,,,,,,,,,,,0,121,121,121,,,,,,,,,,,,,,,,,,,,,,,,,,,,,,,,,,,725.5976589000784,None,725.5976589000784,None,right,0,1.2132026003673673,725.5976589000784,None,0,726.8380130999722,None,,,,,,,,,,,,,,,,,,,,,,,,,,,,,,,,,,,,,,,,,,,,,,,,,,,,,,,,,,,,,,,,,,,42,Male,52,001,2021_Mar_10_1906,cal_abstract,2020.2.4,59.97943908723039,
,Fix2,stimuli/School/12.jpg,right,,,,,,,,,,,0,122,122,122,,,,,,,,,,,,,,,,,,,,,,,,,,,,,,,,,,,727.6142159001902,None,727.6142159001902,None,left,0,4.49874969990924,727.6142159001902,None,0,732.1325201001018,None,,,,,,,,,,,,,,,,,,,,,,,,,,,,,,,,,,,,,,,,,,,,,,,,,,,,,,,,,,,,,,,,,,,42,Male,52,001,2021_Mar_10_1906,cal_abstract,2020.2.4,59.97943908723039,
,Cond,stimuli/Smell/45.jpg,left,,,,,,,,,,,0,123,123,123,,,,,,,,,,,,,,,,,,,,,,,,,,,,,,,,,,,732.911000800319,None,732.911000800319,None,right,0,1.7206871001981199,732.911000800319,None,0,734.6620284002274,None,,,,,,,,,,,,,,,,,,,,,,,,,,,,,,,,,,,,,,,,,,,,,,,,,,,,,,,,,,,,,,,,,,,42,Male,52,001,2021_Mar_10_1906,cal_abstract,2020.2.4,59.97943908723039,
,Fix1,stimuli/Small/11.jpg,left,,,,,,,,,,,0,124,124,124,,,,,,,,,,,,,,,,,,,,,,,,,,,,,,,,,,,735.4462012001313,None,735.4462012001313,None,left,1,5.171315799932927,735.4462012001313,None,1,740.644114700146,None,,,,,,,,,,,,,,,,,,,,,,,,,,,,,,,,,,,,,,,,,,,,,,,,,,,,,,,,,,,,,,,,,,,42,Male,52,001,2021_Mar_10_1906,cal_abstract,2020.2.4,59.97943908723039,
,Fix1,stimuli/Small/15.jpg,left,,,,,,,,,,,0,125,125,125,,,,,,,,,,,,,,,,,,,,,,,,,,,,,,,,,,,741.4217952000909,None,741.4217952000909,None,right,0,0.9955903999507427,741.4217952000909,None,0,742.4496359000914,None,,,,,,,,,,,,,,,,,,,,,,,,,,,,,,,,,,,,,,,,,,,,,,,,,,,,,,,,,,,,,,,,,,,42,Male,52,001,2021_Mar_10_1906,cal_abstract,2020.2.4,59.97943908723039,
,Fix1,stimuli/Small/49.jpg,left,,,,,,,,,,,0,126,126,126,,,,,,,,,,,,,,,,,,,,,,,,,,,,,,,,,,,743.2367153000087,None,743.2367153000087,None,right,0,2.837727800011635,743.2367153000087,None,0,746.1025598002598,None,,,,,,,,,,,,,,,,,,,,,,,,,,,,,,,,,,,,,,,,,,,,,,,,,,,,,,,,,,,,,,,,,,,42,Male,52,001,2021_Mar_10_1906,cal_abstract,2020.2.4,59.97943908723039,
,Cond,stimuli/Smell/48.jpg,right,,,,,,,,,,,0,127,127,127,,,,,,,,,,,,,,,,,,,,,,,,,,,,,,,,,,,746.8796119000763,None,746.8796119000763,None,left,0,1.2354552997276187,746.8796119000763,None,0,748.1344512002543,None,,,,,,,,,,,,,,,,,,,,,,,,,,,,,,,,,,,,,,,,,,,,,,,,,,,,,,,,,,,,,,,,,,,42,Male,52,001,2021_Mar_10_1906,cal_abstract,2020.2.4,59.97943908723039,
,Cond,stimuli/Smell/30.jpg,left,,,,,,,,,,,0,128,128,128,,,,,,,,,,,,,,,,,,,,,,,,,,,,,,,,,,,748.9125255001709,None,748.9125255001709,None,left,1,1.6508709001354873,748.9125255001709,None,1,750.5842949002981,None,,,,,,,,,,,,,,,,,,,,,,,,,,,,,,,,,,,,,,,,,,,,,,,,,,,,,,,,,,,,,,,,,,,42,Male,52,001,2021_Mar_10_1906,cal_abstract,2020.2.4,59.97943908723039,
,Fix1,stimuli/Small/36.jpg,left,,,,,,,,,,,0,129,129,129,,,,,,,,,,,,,,,,,,,,,,,,,,,,,,,,,,,751.3575880001299,None,751.3575880001299,None,right,0,1.9012704999186099,751.3575880001299,None,0,753.2827953002416,None,,,,,,,,,,,,,,,,,,,,,,,,,,,,,,,,,,,,,,,,,,,,,,,,,,,,,,,,,,,,,,,,,,,42,Male,52,001,2021_Mar_10_1906,cal_abstract,2020.2.4,59.97943908723039,
,Fix2,stimuli/School/47.jpg,right,,,,,,,,,,,0,130,130,130,,,,,,,,,,,,,,,,,,,,,,,,,,,,,,,,,,,754.0706979003735,None,754.0706979003735,None,left,0,2.4208436999469995,754.0706979003735,None,0,756.510492300149,None,,,,,,,,,,,,,,,,,,,,,,,,,,,,,,,,,,,,,,,,,,,,,,,,,,,,,,,,,,,,,,,,,,,42,Male,52,001,2021_Mar_10_1906,cal_abstract,2020.2.4,59.97943908723039,
,Fix1,stimuli/Small/52.jpg,left,,,,,,,,,,,0,131,131,131,,,,,,,,,,,,,,,,,,,,,,,,,,,,,,,,,,,757.2860771999694,None,757.2860771999694,None,right,0,1.0711562996730208,757.2860771999694,None,0,758.3753067003563,None,,,,,,,,,,,,,,,,,,,,,,,,,,,,,,,,,,,,,,,,,,,,,,,,,,,,,,,,,,,,,,,,,,,42,Male,52,001,2021_Mar_10_1906,cal_abstract,2020.2.4,59.97943908723039,
,Fix1,stimuli/Small/50.jpg,left,,,,,,,,,,,0,132,132,132,,,,,,,,,,,,,,,,,,,,,,,,,,,,,,,,,,,759.1408758000471,None,759.1408758000471,None,right,0,1.7858694000169635,759.1408758000471,None,0,760.9570472002961,None,,,,,,,,,,,,,,,,,,,,,,,,,,,,,,,,,,,,,,,,,,,,,,,,,,,,,,,,,,,,,,,,,,,42,Male,52,001,2021_Mar_10_1906,cal_abstract,2020.2.4,59.97943908723039,
,Cond,stimuli/Smell/28.jpg,right,,,,,,,,,,,0,133,133,133,,,,,,,,,,,,,,,,,,,,,,,,,,,,,,,,,,,761.7269621002488,None,761.7269621002488,None,right,1,2.6764050000347197,761.7269621002488,None,1,764.4302247003652,None,,,,,,,,,,,,,,,,,,,,,,,,,,,,,,,,,,,,,,,,,,,,,,,,,,,,,,,,,,,,,,,,,,,42,Male,52,001,2021_Mar_10_1906,cal_abstract,2020.2.4,59.97943908723039,
,Fix1,stimuli/Small/32.jpg,left,,,,,,,,,,,0,134,134,134,,,,,,,,,,,,,,,,,,,,,,,,,,,,,,,,,,,765.2118326001801,None,765.2118326001801,None,right,0,1.2147655999287963,765.2118326001801,None,0,766.4549223999493,None,,,,,,,,,,,,,,,,,,,,,,,,,,,,,,,,,,,,,,,,,,,,,,,,,,,,,,,,,,,,,,,,,,,42,Male,52,001,2021_Mar_10_1906,cal_abstract,2020.2.4,59.97943908723039,
,Fix1,stimuli/Small/40.jpg,left,,,,,,,,,,,0,135,135,135,,,,,,,,,,,,,,,,,,,,,,,,,,,,,,,,,,,767.2494928999804,None,767.2494928999804,None,right,0,1.0202016001567245,767.2494928999804,None,0,768.3002965003252,None,,,,,,,,,,,,,,,,,,,,,,,,,,,,,,,,,,,,,,,,,,,,,,,,,,,,,,,,,,,,,,,,,,,42,Male,52,001,2021_Mar_10_1906,cal_abstract,2020.2.4,59.97943908723039,
,Fix2,stimuli/School/43.jpg,right,,,,,,,,,,,0,136,136,136,,,,,,,,,,,,,,,,,,,,,,,,,,,,,,,,,,,769.0771882003173,None,769.0771882003173,None,right,1,1.3591559999622405,769.0771882003173,None,1,770.4676582999527,None,,,,,,,,,,,,,,,,,,,,,,,,,,,,,,,,,,,,,,,,,,,,,,,,,,,,,,,,,,,,,,,,,,,42,Male,52,001,2021_Mar_10_1906,cal_abstract,2020.2.4,59.97943908723039,
,Fix1,stimuli/Small/6.jpg,left,,,,,,,,,,,0,137,137,137,,,,,,,,,,,,,,,,,,,,,,,,,,,,,,,,,,,771.2546109003015,None,771.2546109003015,None,right,0,1.4356386000290513,771.2546109003015,None,0,772.7192274001427,None,,,,,,,,,,,,,,,,,,,,,,,,,,,,,,,,,,,,,,,,,,,,,,,,,,,,,,,,,,,,,,,,,,,42,Male,52,001,2021_Mar_10_1906,cal_abstract,2020.2.4,59.97943908723039,
,Fix1,stimuli/Small/28.jpg,left,,,,,,,,,,,0,138,138,138,,,,,,,,,,,,,,,,,,,,,,,,,,,,,,,,,,,773.4917235001922,None,773.4917235001922,None,right,0,1.952039200346917,773.4917235001922,None,0,775.4617496002465,None,,,,,,,,,,,,,,,,,,,,,,,,,,,,,,,,,,,,,,,,,,,,,,,,,,,,,,,,,,,,,,,,,,,42,Male,52,001,2021_Mar_10_1906,cal_abstract,2020.2.4,59.97943908723039,
,Cond,stimuli/Smell/57.jpg,right,,,,,,,,,,,0,139,139,139,,,,,,,,,,,,,,,,,,,,,,,,,,,,,,,,,,,776.2343660001643,None,776.2343660001643,None,right,1,0.9052635999396443,776.2343660001643,None,1,777.167679999955,None,,,,,,,,,,,,,,,,,,,,,,,,,,,,,,,,,,,,,,,,,,,,,,,,,,,,,,,,,,,,,,,,,,,42,Male,52,001,2021_Mar_10_1906,cal_abstract,2020.2.4,59.97943908723039,
,Fix2,stimuli/School/14.jpg,right,,,,,,,,,,,0,140,140,140,,,,,,,,,,,,,,,,,,,,,,,,,,,,,,,,,,,777.9448434002697,None,777.9448434002697,None,right,1,1.7758511998690665,777.9448434002697,None,1,779.7439965000376,None,,,,,,,,,,,,,,,,,,,,,,,,,,,,,,,,,,,,,,,,,,,,,,,,,,,,,,,,,,,,,,,,,,,42,Male,52,001,2021_Mar_10_1906,cal_abstract,2020.2.4,59.97943908723039,
,Fix2,stimuli/School/28.jpg,right,,,,,,,,,,,0,141,141,141,,,,,,,,,,,,,,,,,,,,,,,,,,,,,,,,,,,780.5179856000468,None,780.5179856000468,None,left,0,1.5035089999437332,780.5179856000468,None,0,782.0452706003562,None,,,,,,,,,,,,,,,,,,,,,,,,,,,,,,,,,,,,,,,,,,,,,,,,,,,,,,,,,,,,,,,,,,,42,Male,52,001,2021_Mar_10_1906,cal_abstract,2020.2.4,59.97943908723039,
,Fix2,stimuli/School/40.jpg,right,,,,,,,,,,,0,142,142,142,,,,,,,,,,,,,,,,,,,,,,,,,,,,,,,,,,,782.8228335999884,None,782.8228335999884,None,right,1,6.051829499658197,782.8228335999884,None,1,788.9101162999868,None,,,,,,,,,,,,,,,,,,,,,,,,,,,,,,,,,,,,,,,,,,,,,,,,,,,,,,,,,,,,,,,,,,,42,Male,52,001,2021_Mar_10_1906,cal_abstract,2020.2.4,59.97943908723039,
,Cond,stimuli/Smell/59.jpg,left,,,,,,,,,,,0,143,143,143,,,,,,,,,,,,,,,,,,,,,,,,,,,,,,,,,,,789.6907401001081,None,789.6907401001081,None,left,1,2.0113405003212392,789.6907401001081,None,1,791.732018600218,None,,,,,,,,,,,,,,,,,,,,,,,,,,,,,,,,,,,,,,,,,,,,,,,,,,,,,,,,,,,,,,,,,,,42,Male,52,001,2021_Mar_10_1906,cal_abstract,2020.2.4,59.97943908723039,
,Fix2,stimuli/School/46.jpg,right,,,,,,,,,,,0,144,144,144,,,,,,,,,,,,,,,,,,,,,,,,,,,,,,,,,,,792.5438084001653,None,792.5438084001653,None,left,0,4.2814690000377595,792.5438084001653,None,0,796.8543875003234,None,,,,,,,,,,,,,,,,,,,,,,,,,,,,,,,,,,,,,,,,,,,,,,,,,,,,,,,,,,,,,,,,,,,42,Male,52,001,2021_Mar_10_1906,cal_abstract,2020.2.4,59.97943908723039,
,Fix2,stimuli/School/55.jpg,right,,,,,,,,,,,0,145,145,145,,,,,,,,,,,,,,,,,,,,,,,,,,,,,,,,,,,797.629268700257,None,797.629268700257,None,left,0,1.568790300283581,797.629268700257,None,0,799.2251583002508,None,,,,,,,,,,,,,,,,,,,,,,,,,,,,,,,,,,,,,,,,,,,,,,,,,,,,,,,,,,,,,,,,,,,42,Male,52,001,2021_Mar_10_1906,cal_abstract,2020.2.4,59.97943908723039,
,Fix2,stimuli/School/3.jpg,right,,,,,,,,,,,0,146,146,146,,,,,,,,,,,,,,,,,,,,,,,,,,,,,,,,,,,800.0127520002425,None,800.0127520002425,None,right,1,1.1944071999751031,800.0127520002425,None,1,801.2263362002559,None,,,,,,,,,,,,,,,,,,,,,,,,,,,,,,,,,,,,,,,,,,,,,,,,,,,,,,,,,,,,,,,,,,,42,Male,52,001,2021_Mar_10_1906,cal_abstract,2020.2.4,59.97943908723039,
,Cond,stimuli/Smell/36.jpg,left,,,,,,,,,,,0,147,147,147,,,,,,,,,,,,,,,,,,,,,,,,,,,,,,,,,,,802.0015815002844,None,802.0015815002844,None,left,1,5.166183699853718,802.0015815002844,None,1,807.185706099961,None,,,,,,,,,,,,,,,,,,,,,,,,,,,,,,,,,,,,,,,,,,,,,,,,,,,,,,,,,,,,,,,,,,,42,Male,52,001,2021_Mar_10_1906,cal_abstract,2020.2.4,59.97943908723039,
,Fix2,stimuli/School/9.jpg,right,,,,,,,,,,,0,148,148,148,,,,,,,,,,,,,,,,,,,,,,,,,,,,,,,,,,,807.974168700166,None,807.974168700166,None,right,1,2.5775343999266624,807.974168700166,None,1,810.5831836001016,None,,,,,,,,,,,,,,,,,,,,,,,,,,,,,,,,,,,,,,,,,,,,,,,,,,,,,,,,,,,,,,,,,,,42,Male,52,001,2021_Mar_10_1906,cal_abstract,2020.2.4,59.97943908723039,
,Cond,stimuli/Smell/56.jpg,left,,,,,,,,,,,0,149,149,149,,,,,,,,,,,,,,,,,,,,,,,,,,,,,,,,,,,811.3804278001189,None,811.3804278001189,None,right,0,2.6680779000744224,811.3804278001189,None,0,814.0841544000432,None,,,,,,,,,,,,,,,,,,,,,,,,,,,,,,,,,,,,,,,,,,,,,,,,,,,,,,,,,,,,,,,,,,,42,Male,52,001,2021_Mar_10_1906,cal_abstract,2020.2.4,59.97943908723039,
,Fix2,stimuli/School/48.jpg,right,,,,,,,,,,,0,150,150,150,,,,,,,,,,,,,,,,,,,,,,,,,,,,,,,,,,,814.8724197000265,None,814.8724197000265,None,left,0,3.3411419996991754,814.8724197000265,None,0,818.2590048001148,None,,,,,,,,,,,,,,,,,,,,,,,,,,,,,,,,,,,,,,,,,,,,,,,,,,,,,,,,,,,,,,,,,,,42,Male,52,001,2021_Mar_10_1906,cal_abstract,2020.2.4,59.97943908723039,
,Fix2,stimuli/School/51.jpg,right,,,,,,,,,,,0,151,151,151,,,,,,,,,,,,,,,,,,,,,,,,,,,,,,,,,,,819.0087880003266,None,819.0087880003266,None,right,1,1.5864234999753535,819.0087880003266,None,1,820.6283404002897,None,,,,,,,,,,,,,,,,,,,,,,,,,,,,,,,,,,,,,,,,,,,,,,,,,,,,,,,,,,,,,,,,,,,42,Male,52,001,2021_Mar_10_1906,cal_abstract,2020.2.4,59.97943908723039,
,Fix1,stimuli/Small/55.jpg,left,,,,,,,,,,,0,152,152,152,,,,,,,,,,,,,,,,,,,,,,,,,,,,,,,,,,,821.4231008002535,None,821.4231008002535,None,right,0,4.968193700071424,821.4231008002535,None,0,826.4211518000811,None,,,,,,,,,,,,,,,,,,,,,,,,,,,,,,,,,,,,,,,,,,,,,,,,,,,,,,,,,,,,,,,,,,,42,Male,52,001,2021_Mar_10_1906,cal_abstract,2020.2.4,59.97943908723039,
,Cond,stimuli/Smell/37.jpg,right,,,,,,,,,,,0,153,153,153,,,,,,,,,,,,,,,,,,,,,,,,,,,,,,,,,,,827.223628200125,None,827.223628200125,None,right,1,7.727440800052136,827.223628200125,None,1,834.9818474999629,None,,,,,,,,,,,,,,,,,,,,,,,,,,,,,,,,,,,,,,,,,,,,,,,,,,,,,,,,,,,,,,,,,,,42,Male,52,001,2021_Mar_10_1906,cal_abstract,2020.2.4,59.97943908723039,
,Cond,stimuli/Smell/13.jpg,left,,,,,,,,,,,0,154,154,154,,,,,,,,,,,,,,,,,,,,,,,,,,,,,,,,,,,835.7663790001534,None,835.7663790001534,None,right,0,3.1726692002266645,835.7663790001534,None,0,838.9683442004025,None,,,,,,,,,,,,,,,,,,,,,,,,,,,,,,,,,,,,,,,,,,,,,,,,,,,,,,,,,,,,,,,,,,,42,Male,52,001,2021_Mar_10_1906,cal_abstract,2020.2.4,59.97943908723039,
,Fix2,stimuli/School/31.jpg,right,,,,,,,,,,,0,155,155,155,,,,,,,,,,,,,,,,,,,,,,,,,,,,,,,,,,,839.7640196001157,None,839.7640196001157,None,left,0,2.470514999702573,839.7640196001157,None,0,842.256073300261,None,,,,,,,,,,,,,,,,,,,,,,,,,,,,,,,,,,,,,,,,,,,,,,,,,,,,,,,,,,,,,,,,,,,42,Male,52,001,2021_Mar_10_1906,cal_abstract,2020.2.4,59.97943908723039,
,Fix2,stimuli/School/1.jpg,right,,,,,,,,,,,0,156,156,156,,,,,,,,,,,,,,,,,,,,,,,,,,,,,,,,,,,843.035790800117,None,843.035790800117,None,right,1,1.493644299916923,843.035790800117,None,1,844.563926700037,None,,,,,,,,,,,,,,,,,,,,,,,,,,,,,,,,,,,,,,,,,,,,,,,,,,,,,,,,,,,,,,,,,,,42,Male,52,001,2021_Mar_10_1906,cal_abstract,2020.2.4,59.97943908723039,
,Fix1,stimuli/Small/2.jpg,left,,,,,,,,,,,0,157,157,157,,,,,,,,,,,,,,,,,,,,,,,,,,,,,,,,,,,845.3456950001419,None,845.3456950001419,None,right,0,2.058273300062865,845.3456950001419,None,0,847.4311588001437,None,,,,,,,,,,,,,,,,,,,,,,,,,,,,,,,,,,,,,,,,,,,,,,,,,,,,,,,,,,,,,,,,,,,42,Male,52,001,2021_Mar_10_1906,cal_abstract,2020.2.4,59.97943908723039,
,Fix1,stimuli/Small/23.jpg,left,,,,,,,,,,,0,158,158,158,,,,,,,,,,,,,,,,,,,,,,,,,,,,,,,,,,,848.2045809002593,None,848.2045809002593,None,right,0,4.137652599718422,848.2045809002593,None,0,852.3652013000101,None,,,,,,,,,,,,,,,,,,,,,,,,,,,,,,,,,,,,,,,,,,,,,,,,,,,,,,,,,,,,,,,,,,,42,Male,52,001,2021_Mar_10_1906,cal_abstract,2020.2.4,59.97943908723039,
,Fix2,stimuli/School/23.jpg,right,,,,,,,,,,,0,159,159,159,,,,,,,,,,,,,,,,,,,,,,,,,,,,,,,,,,,853.1334019000642,None,853.1334019000642,None,left,0,2.3475143001414835,853.1334019000642,None,0,855.5131950001232,None,,,,,,,,,,,,,,,,,,,,,,,,,,,,,,,,,,,,,,,,,,,,,,,,,,,,,,,,,,,,,,,,,,,42,Male,52,001,2021_Mar_10_1906,cal_abstract,2020.2.4,59.97943908723039,
,Cond,stimuli/Smell/24.jpg,left,,,,,,,,,,,0,160,160,160,,,,,,,,,,,,,,,,,,,,,,,,,,,,,,,,,,,856.2910218001343,None,856.2910218001343,None,left,1,2.859065600205213,856.2910218001343,None,1,859.1783867003396,None,,,,,,,,,,,,,,,,,,,,,,,,,,,,,,,,,,,,,,,,,,,,,,,,,,,,,,,,,,,,,,,,,,,42,Male,52,001,2021_Mar_10_1906,cal_abstract,2020.2.4,59.97943908723039,
,Fix2,stimuli/School/56.jpg,right,,,,,,,,,,,0,161,161,161,,,,,,,,,,,,,,,,,,,,,,,,,,,,,,,,,,,859.9520184001885,None,859.9520184001885,None,left,0,4.3990398002788424,859.9520184001885,None,0,864.3782567000017,None,,,,,,,,,,,,,,,,,,,,,,,,,,,,,,,,,,,,,,,,,,,,,,,,,,,,,,,,,,,,,,,,,,,42,Male,52,001,2021_Mar_10_1906,cal_abstract,2020.2.4,59.97943908723039,
,Cond,stimuli/Smell/58.jpg,left,,,,,,,,,,,0,162,162,162,,,,,,,,,,,,,,,,,,,,,,,,,,,,,,,,,,,865.1587196001783,None,865.1587196001783,None,left,1,1.1661937003955245,865.1587196001783,None,1,866.3552415999584,None,,,,,,,,,,,,,,,,,,,,,,,,,,,,,,,,,,,,,,,,,,,,,,,,,,,,,,,,,,,,,,,,,,,42,Male,52,001,2021_Mar_10_1906,cal_abstract,2020.2.4,59.97943908723039,
,Cond,stimuli/Smell/16.jpg,right,,,,,,,,,,,0,163,163,163,,,,,,,,,,,,,,,,,,,,,,,,,,,,,,,,,,,867.15073830029,None,867.15073830029,None,right,1,2.6535604000091553,867.15073830029,None,1,869.8339498001151,None,,,,,,,,,,,,,,,,,,,,,,,,,,,,,,,,,,,,,,,,,,,,,,,,,,,,,,,,,,,,,,,,,,,42,Male,52,001,2021_Mar_10_1906,cal_abstract,2020.2.4,59.97943908723039,
,Fix1,stimuli/Small/20.jpg,left,,,,,,,,,,,0,164,164,164,,,,,,,,,,,,,,,,,,,,,,,,,,,,,,,,,,,870.6035621003248,None,870.6035621003248,None,right,0,1.1665857997722924,870.6035621003248,None,0,871.8053653002717,None,,,,,,,,,,,,,,,,,,,,,,,,,,,,,,,,,,,,,,,,,,,,,,,,,,,,,,,,,,,,,,,,,,,42,Male,52,001,2021_Mar_10_1906,cal_abstract,2020.2.4,59.97943908723039,
,Cond,stimuli/Smell/29.jpg,right,,,,,,,,,,,0,165,165,165,,,,,,,,,,,,,,,,,,,,,,,,,,,,,,,,,,,872.6167354001664,None,872.6167354001664,None,left,0,5.24613740015775,872.6167354001664,None,0,877.8802240001969,None,,,,,,,,,,,,,,,,,,,,,,,,,,,,,,,,,,,,,,,,,,,,,,,,,,,,,,,,,,,,,,,,,,,42,Male,52,001,2021_Mar_10_1906,cal_abstract,2020.2.4,59.97943908723039,
,Cond,stimuli/Smell/15.jpg,left,,,,,,,,,,,0,166,166,166,,,,,,,,,,,,,,,,,,,,,,,,,,,,,,,,,,,878.6647664001212,None,878.6647664001212,None,right,0,1.2346625002101064,878.6647664001212,None,0,879.9257497000508,None,,,,,,,,,,,,,,,,,,,,,,,,,,,,,,,,,,,,,,,,,,,,,,,,,,,,,,,,,,,,,,,,,,,42,Male,52,001,2021_Mar_10_1906,cal_abstract,2020.2.4,59.97943908723039,
,Cond,stimuli/Smell/21.jpg,right,,,,,,,,,,,0,167,167,167,,,,,,,,,,,,,,,,,,,,,,,,,,,,,,,,,,,880.7036303002387,None,880.7036303002387,None,left,0,1.0619509001262486,880.7036303002387,None,0,881.7944200001657,None,,,,,,,,,,,,,,,,,,,,,,,,,,,,,,,,,,,,,,,,,,,,,,,,,,,,,,,,,,,,,,,,,,,42,Male,52,001,2021_Mar_10_1906,cal_abstract,2020.2.4,59.97943908723039,
,Fix2,stimuli/School/4.jpg,right,,,,,,,,,,,0,168,168,168,,,,,,,,,,,,,,,,,,,,,,,,,,,,,,,,,,,882.5683518000878,None,882.5683518000878,None,right,1,4.053433599881828,882.5683518000878,None,1,886.6419007000513,None,,,,,,,,,,,,,,,,,,,,,,,,,,,,,,,,,,,,,,,,,,,,,,,,,,,,,,,,,,,,,,,,,,,42,Male,52,001,2021_Mar_10_1906,cal_abstract,2020.2.4,59.97943908723039,
,Cond,stimuli/Smell/54.jpg,left,,,,,,,,,,,0,169,169,169,,,,,,,,,,,,,,,,,,,,,,,,,,,,,,,,,,,887.423553599976,None,887.423553599976,None,left,1,1.44542340002954,887.423553599976,None,1,888.8856734000146,None,,,,,,,,,,,,,,,,,,,,,,,,,,,,,,,,,,,,,,,,,,,,,,,,,,,,,,,,,,,,,,,,,,,42,Male,52,001,2021_Mar_10_1906,cal_abstract,2020.2.4,59.97943908723039,
,Fix2,stimuli/School/7.jpg,right,,,,,,,,,,,0,170,170,170,,,,,,,,,,,,,,,,,,,,,,,,,,,,,,,,,,,889.6942149000242,None,889.6942149000242,None,left,0,2.450317299924791,889.6942149000242,None,0,892.1744870999828,None,,,,,,,,,,,,,,,,,,,,,,,,,,,,,,,,,,,,,,,,,,,,,,,,,,,,,,,,,,,,,,,,,,,42,Male,52,001,2021_Mar_10_1906,cal_abstract,2020.2.4,59.97943908723039,
,Fix1,stimuli/Small/47.jpg,left,,,,,,,,,,,0,171,171,171,,,,,,,,,,,,,,,,,,,,,,,,,,,,,,,,,,,892.9396643000655,None,892.9396643000655,None,left,1,1.014468700159341,892.9396643000655,None,1,893.99364170013,None,,,,,,,,,,,,,,,,,,,,,,,,,,,,,,,,,,,,,,,,,,,,,,,,,,,,,,,,,,,,,,,,,,,42,Male,52,001,2021_Mar_10_1906,cal_abstract,2020.2.4,59.97943908723039,
,Fix1,stimuli/Small/10.jpg,left,,,,,,,,,,,0,172,172,172,,,,,,,,,,,,,,,,,,,,,,,,,,,,,,,,,,,894.7530296002515,None,894.7530296002515,None,right,0,1.8110670996829867,894.7530296002515,None,0,896.602246100083,None,,,,,,,,,,,,,,,,,,,,,,,,,,,,,,,,,,,,,,,,,,,,,,,,,,,,,,,,,,,,,,,,,,,42,Male,52,001,2021_Mar_10_1906,cal_abstract,2020.2.4,59.97943908723039,
,Cond,stimuli/Smell/2.jpg,right,,,,,,,,,,,0,173,173,173,,,,,,,,,,,,,,,,,,,,,,,,,,,,,,,,,,,897.3843555003405,None,897.3843555003405,None,left,0,1.0961498999968171,897.3843555003405,None,0,898.5124145001173,None,,,,,,,,,,,,,,,,,,,,,,,,,,,,,,,,,,,,,,,,,,,,,,,,,,,,,,,,,,,,,,,,,,,42,Male,52,001,2021_Mar_10_1906,cal_abstract,2020.2.4,59.97943908723039,
,Fix2,stimuli/School/5.jpg,right,,,,,,,,,,,0,174,174,174,,,,,,,,,,,,,,,,,,,,,,,,,,,,,,,,,,,899.3146593002602,None,899.3146593002602,None,right,1,1.3272474999539554,899.3146593002602,None,1,900.6784018999897,None,,,,,,,,,,,,,,,,,,,,,,,,,,,,,,,,,,,,,,,,,,,,,,,,,,,,,,,,,,,,,,,,,,,42,Male,52,001,2021_Mar_10_1906,cal_abstract,2020.2.4,59.97943908723039,
,Cond,stimuli/Smell/5.jpg,left,,,,,,,,,,,0,175,175,175,,,,,,,,,,,,,,,,,,,,,,,,,,,,,,,,,,,901.4632767001167,None,901.4632767001167,None,left,1,1.8929061000235379,901.4632767001167,None,1,903.3755483003333,None,,,,,,,,,,,,,,,,,,,,,,,,,,,,,,,,,,,,,,,,,,,,,,,,,,,,,,,,,,,,,,,,,,,42,Male,52,001,2021_Mar_10_1906,cal_abstract,2020.2.4,59.97943908723039,
,Fix1,stimuli/Small/8.jpg,left,,,,,,,,,,,0,176,176,176,,,,,,,,,,,,,,,,,,,,,,,,,,,,,,,,,,,904.1864085001871,None,904.1864085001871,None,right,0,2.654668999835849,904.1864085001871,None,0,906.8781795999967,None,,,,,,,,,,,,,,,,,,,,,,,,,,,,,,,,,,,,,,,,,,,,,,,,,,,,,,,,,,,,,,,,,,,42,Male,52,001,2021_Mar_10_1906,cal_abstract,2020.2.4,59.97943908723039,
,Fix2,stimuli/School/2.jpg,right,,,,,,,,,,,0,177,177,177,,,,,,,,,,,,,,,,,,,,,,,,,,,,,,,,,,,907.6461016000248,None,907.6461016000248,None,left,0,1.80619790032506,907.6461016000248,None,0,909.470857700333,None,,,,,,,,,,,,,,,,,,,,,,,,,,,,,,,,,,,,,,,,,,,,,,,,,,,,,,,,,,,,,,,,,,,42,Male,52,001,2021_Mar_10_1906,cal_abstract,2020.2.4,59.97943908723039,
,Fix1,stimuli/Small/26.jpg,left,,,,,,,,,,,0,178,178,178,,,,,,,,,,,,,,,,,,,,,,,,,,,,,,,,,,,910.2465188000351,None,910.2465188000351,None,left,1,2.503617800306529,910.2465188000351,None,1,912.7700241003186,None,,,,,,,,,,,,,,,,,,,,,,,,,,,,,,,,,,,,,,,,,,,,,,,,,,,,,,,,,,,,,,,,,,,42,Male,52,001,2021_Mar_10_1906,cal_abstract,2020.2.4,59.97943908723039,
,Cond,stimuli/Smell/43.jpg,right,,,,,,,,,,,0,179,179,179,,,,,,,,,,,,,,,,,,,,,,,,,,,,,,,,,,,913.5477532004006,None,913.5477532004006,None,right,1,2.0041726999916136,913.5477532004006,None,1,915.5796039002016,None,,,,,,,,,,,,,,,,,,,,,,,,,,,,,,,,,,,,,,,,,,,,,,,,,,,,,,,,,,,,,,,,,,,42,Male,52,001,2021_Mar_10_1906,cal_abstract,2020.2.4,59.97943908723039,
,,,,,,,,,,,,,,,,,,,,,,,,,,,,,,,,,,,,,,,,,,,,,,,,,,,,,,,,,,,,,,,,916.3290582001209,None,c,8.440234899986535,916.3290582001209,None,,,,,,,,,,,,,,,,,,,,,,,,,,,,,,,,,,,,,,,,,,,,,,,,,,,,,,,,,,,,,42,Male,52,001,2021_Mar_10_1906,cal_abstract,2020.2.4,59.97943908723039,
,,,,,,,,,,,,,,,,,,,,,,,,,,,,,,,,,,,,,,,,,,,,,,,,,,,,,,,,,,,,,,,,,,,,,,924.7960708001629,None,924.7960708001629,None,return,6.516446299850941,924.7960708001629,None,,,,,,,,,,,,,,,,,,,,,,,,,,,,,,,,,,,,,,,,,,,,,,,,,,,,,42,Male,52,001,2021_Mar_10_1906,cal_abstract,2020.2.4,59.97943908723039,
,,,,,,,,,,,,,,,,,,,,,,,,,,,,,,,,,,,,,,,,,,,,,,,,,,,,,,,,,,,,,,,,,,,,,,,,,,,,,,931.3327135001309,None,931.3327135001309,None,s,1.9381026001647115,931.3327135001309,None,,,,,,,,,,,,,,,,,,,,,,,,,,,,,,,,,,,,,,,,,,,,,42,Male,52,001,2021_Mar_10_1906,cal_abstract,2020.2.4,59.97943908723039,
,,,,Fix2,stimuli/Old/49.jpg,left,,,,,,,,,,,,0,0,0,0,,,,,,,,,,,,,,,,,,,,,,,,,,,,,,,,,,,,,,,,0,,,,,,,,,,,,,,,,,,,,,,,,,933.3660582001321,None,933.3660582001321,None,right,0,1.9908648002892733,933.3660582001321,None,935.3849865002558,None,,,,,,,,,,,,,,,,,,,,,,,,,,,,,,,,,,42,Male,52,001,2021_Mar_10_1906,cal_abstract,2020.2.4,59.97943908723039,
,,,,Fix2,stimuli/Old/2.jpg,left,,,,,,,,,,,,0,1,1,1,,,,,,,,,,,,,,,,,,,,,,,,,,,,,,,,,,,,,,,,0,,,,,,,,,,,,,,,,,,,,,,,,,936.1741736000404,None,936.1741736000404,None,right,0,2.200698500033468,936.1741736000404,None,938.3973779999651,None,,,,,,,,,,,,,,,,,,,,,,,,,,,,,,,,,,42,Male,52,001,2021_Mar_10_1906,cal_abstract,2020.2.4,59.97943908723039,
,,,,Fix1,stimuli/Dangerous/18.jpg,right,,,,,,,,,,,,0,2,2,2,,,,,,,,,,,,,,,,,,,,,,,,,,,,,,,,,,,,,,,,1,,,,,,,,,,,,,,,,,,,,,,,,,939.1812541000545,None,939.1812541000545,None,right,1,2.2572515001520514,939.1812541000545,None,941.4714315002784,None,,,,,,,,,,,,,,,,,,,,,,,,,,,,,,,,,,42,Male,52,001,2021_Mar_10_1906,cal_abstract,2020.2.4,59.97943908723039,
,,,,Cond,stimuli/Sad/9.jpg,left,,,,,,,,,,,,0,3,3,3,,,,,,,,,,,,,,,,,,,,,,,,,,,,,,,,,,,,,,,,0,,,,,,,,,,,,,,,,,,,,,,,,,942.2417459003627,None,942.2417459003627,None,right,0,1.913368800189346,942.2417459003627,None,944.1758638001047,None,,,,,,,,,,,,,,,,,,,,,,,,,,,,,,,,,,42,Male,52,001,2021_Mar_10_1906,cal_abstract,2020.2.4,59.97943908723039,
,,,,Fix2,stimuli/Old/43.jpg,left,,,,,,,,,,,,0,4,4,4,,,,,,,,,,,,,,,,,,,,,,,,,,,,,,,,,,,,,,,,0,,,,,,,,,,,,,,,,,,,,,,,,,944.9495668001473,None,944.9495668001473,None,right,0,3.3243575002998114,944.9495668001473,None,948.3064093999565,None,,,,,,,,,,,,,,,,,,,,,,,,,,,,,,,,,,42,Male,52,001,2021_Mar_10_1906,cal_abstract,2020.2.4,59.97943908723039,
,,,,Fix2,stimuli/Old/27.jpg,left,,,,,,,,,,,,0,5,5,5,,,,,,,,,,,,,,,,,,,,,,,,,,,,,,,,,,,,,,,,0,,,,,,,,,,,,,,,,,,,,,,,,,949.0977121000178,None,949.0977121000178,None,right,0,3.666978699620813,949.0977121000178,None,952.7825721004046,None,,,,,,,,,,,,,,,,,,,,,,,,,,,,,,,,,,42,Male,52,001,2021_Mar_10_1906,cal_abstract,2020.2.4,59.97943908723039,
,,,,Cond,stimuli/Sad/0.jpg,right,,,,,,,,,,,,0,6,6,6,,,,,,,,,,,,,,,,,,,,,,,,,,,,,,,,,,,,,,,,0,,,,,,,,,,,,,,,,,,,,,,,,,953.5471061002463,None,953.5471061002463,None,left,0,2.0287161003798246,953.5471061002463,None,955.596651900094,None,,,,,,,,,,,,,,,,,,,,,,,,,,,,,,,,,,42,Male,52,001,2021_Mar_10_1906,cal_abstract,2020.2.4,59.97943908723039,
,,,,Fix1,stimuli/Dangerous/5.jpg,right,,,,,,,,,,,,0,7,7,7,,,,,,,,,,,,,,,,,,,,,,,,,,,,,,,,,,,,,,,,0,,,,,,,,,,,,,,,,,,,,,,,,,956.4125850000419,None,956.4125850000419,None,left,0,3.7458252999931574,956.4125850000419,None,960.1758183003403,None,,,,,,,,,,,,,,,,,,,,,,,,,,,,,,,,,,42,Male,52,001,2021_Mar_10_1906,cal_abstract,2020.2.4,59.97943908723039,
,,,,Cond,stimuli/Sad/31.jpg,left,,,,,,,,,,,,0,8,8,8,,,,,,,,,,,,,,,,,,,,,,,,,,,,,,,,,,,,,,,,0,,,,,,,,,,,,,,,,,,,,,,,,,960.944183500018,None,960.944183500018,None,right,0,1.647521400358528,960.944183500018,None,962.6083531002514,None,,,,,,,,,,,,,,,,,,,,,,,,,,,,,,,,,,42,Male,52,001,2021_Mar_10_1906,cal_abstract,2020.2.4,59.97943908723039,
,,,,Fix1,stimuli/Dangerous/22.jpg,right,,,,,,,,,,,,0,9,9,9,,,,,,,,,,,,,,,,,,,,,,,,,,,,,,,,,,,,,,,,0,,,,,,,,,,,,,,,,,,,,,,,,,963.3861949001439,None,963.3861949001439,None,left,0,2.535781200043857,963.3861949001439,None,965.9383881003596,None,,,,,,,,,,,,,,,,,,,,,,,,,,,,,,,,,,42,Male,52,001,2021_Mar_10_1906,cal_abstract,2020.2.4,59.97943908723039,
,,,,Fix2,stimuli/Old/54.jpg,left,,,,,,,,,,,,0,10,10,10,,,,,,,,,,,,,,,,,,,,,,,,,,,,,,,,,,,,,,,,0,,,,,,,,,,,,,,,,,,,,,,,,,966.7065448001958,None,966.7065448001958,None,right,0,1.813852199818939,966.7065448001958,None,968.5401975000277,None,,,,,,,,,,,,,,,,,,,,,,,,,,,,,,,,,,42,Male,52,001,2021_Mar_10_1906,cal_abstract,2020.2.4,59.97943908723039,
,,,,Fix2,stimuli/Old/4.jpg,left,,,,,,,,,,,,0,11,11,11,,,,,,,,,,,,,,,,,,,,,,,,,,,,,,,,,,,,,,,,0,,,,,,,,,,,,,,,,,,,,,,,,,969.3416969999671,None,969.3416969999671,None,right,0,1.4553779000416398,969.3416969999671,None,970.8175802002661,None,,,,,,,,,,,,,,,,,,,,,,,,,,,,,,,,,,42,Male,52,001,2021_Mar_10_1906,cal_abstract,2020.2.4,59.97943908723039,
,,,,Fix1,stimuli/Dangerous/39.jpg,right,,,,,,,,,,,,0,12,12,12,,,,,,,,,,,,,,,,,,,,,,,,,,,,,,,,,,,,,,,,0,,,,,,,,,,,,,,,,,,,,,,,,,971.6123563000001,None,971.6123563000001,None,left,0,1.9300639000721276,971.6123563000001,None,973.5682536000386,None,,,,,,,,,,,,,,,,,,,,,,,,,,,,,,,,,,42,Male,52,001,2021_Mar_10_1906,cal_abstract,2020.2.4,59.97943908723039,
,,,,Fix2,stimuli/Old/13.jpg,left,,,,,,,,,,,,0,13,13,13,,,,,,,,,,,,,,,,,,,,,,,,,,,,,,,,,,,,,,,,1,,,,,,,,,,,,,,,,,,,,,,,,,974.3603245001286,None,974.3603245001286,None,left,1,1.823008299805224,974.3603245001286,None,976.2196047999896,None,,,,,,,,,,,,,,,,,,,,,,,,,,,,,,,,,,42,Male,52,001,2021_Mar_10_1906,cal_abstract,2020.2.4,59.97943908723039,
,,,,Cond,stimuli/Sad/48.jpg,right,,,,,,,,,,,,0,14,14,14,,,,,,,,,,,,,,,,,,,,,,,,,,,,,,,,,,,,,,,,1,,,,,,,,,,,,,,,,,,,,,,,,,976.9941328000277,None,976.9941328000277,None,right,1,1.5678791999816895,976.9941328000277,None,978.5779934003949,None,,,,,,,,,,,,,,,,,,,,,,,,,,,,,,,,,,42,Male,52,001,2021_Mar_10_1906,cal_abstract,2020.2.4,59.97943908723039,
,,,,Fix1,stimuli/Dangerous/25.jpg,right,,,,,,,,,,,,0,15,15,15,,,,,,,,,,,,,,,,,,,,,,,,,,,,,,,,,,,,,,,,1,,,,,,,,,,,,,,,,,,,,,,,,,979.3428654000163,None,979.3428654000163,None,right,1,1.6653223996981978,979.3428654000163,None,981.0283665000461,None,,,,,,,,,,,,,,,,,,,,,,,,,,,,,,,,,,42,Male,52,001,2021_Mar_10_1906,cal_abstract,2020.2.4,59.97943908723039,
,,,,Fix2,stimuli/Old/56.jpg,left,,,,,,,,,,,,0,16,16,16,,,,,,,,,,,,,,,,,,,,,,,,,,,,,,,,,,,,,,,,0,,,,,,,,,,,,,,,,,,,,,,,,,981.804360399954,None,981.804360399954,None,right,0,1.8877568999305367,981.804360399954,None,983.7208406003192,None,,,,,,,,,,,,,,,,,,,,,,,,,,,,,,,,,,42,Male,52,001,2021_Mar_10_1906,cal_abstract,2020.2.4,59.97943908723039,
,,,,Fix2,stimuli/Old/28.jpg,left,,,,,,,,,,,,0,17,17,17,,,,,,,,,,,,,,,,,,,,,,,,,,,,,,,,,,,,,,,,0,,,,,,,,,,,,,,,,,,,,,,,,,984.512134199962,None,984.512134199962,None,right,0,2.19955169968307,984.512134199962,None,986.7404373004101,None,,,,,,,,,,,,,,,,,,,,,,,,,,,,,,,,,,42,Male,52,001,2021_Mar_10_1906,cal_abstract,2020.2.4,59.97943908723039,
,,,,Fix1,stimuli/Dangerous/58.jpg,right,,,,,,,,,,,,0,18,18,18,,,,,,,,,,,,,,,,,,,,,,,,,,,,,,,,,,,,,,,,0,,,,,,,,,,,,,,,,,,,,,,,,,987.5035345000215,None,987.5035345000215,None,left,0,2.2185412999242544,987.5035345000215,None,989.7525296001695,None,,,,,,,,,,,,,,,,,,,,,,,,,,,,,,,,,,42,Male,52,001,2021_Mar_10_1906,cal_abstract,2020.2.4,59.97943908723039,
,,,,Cond,stimuli/Sad/35.jpg,left,,,,,,,,,,,,0,19,19,19,,,,,,,,,,,,,,,,,,,,,,,,,,,,,,,,,,,,,,,,0,,,,,,,,,,,,,,,,,,,,,,,,,990.5416958001442,None,990.5416958001442,None,right,0,1.860132200177759,990.5416958001442,None,992.4334760000929,None,,,,,,,,,,,,,,,,,,,,,,,,,,,,,,,,,,42,Male,52,001,2021_Mar_10_1906,cal_abstract,2020.2.4,59.97943908723039,
,,,,Cond,stimuli/Sad/14.jpg,right,,,,,,,,,,,,0,20,20,20,,,,,,,,,,,,,,,,,,,,,,,,,,,,,,,,,,,,,,,,0,,,,,,,,,,,,,,,,,,,,,,,,,993.2228435003199,None,993.2228435003199,None,left,0,1.170978699810803,993.2228435003199,None,994.4151121000759,None,,,,,,,,,,,,,,,,,,,,,,,,,,,,,,,,,,42,Male,52,001,2021_Mar_10_1906,cal_abstract,2020.2.4,59.97943908723039,
,,,,Cond,stimuli/Sad/52.jpg,left,,,,,,,,,,,,0,21,21,21,,,,,,,,,,,,,,,,,,,,,,,,,,,,,,,,,,,,,,,,1,,,,,,,,,,,,,,,,,,,,,,,,,995.2126379003748,None,995.2126379003748,None,left,1,4.789244499988854,995.2126379003748,None,1000.0344393001869,None,,,,,,,,,,,,,,,,,,,,,,,,,,,,,,,,,,42,Male,52,001,2021_Mar_10_1906,cal_abstract,2020.2.4,59.97943908723039,
,,,,Cond,stimuli/Sad/49.jpg,right,,,,,,,,,,,,0,22,22,22,,,,,,,,,,,,,,,,,,,,,,,,,,,,,,,,,,,,,,,,0,,,,,,,,,,,,,,,,,,,,,,,,,1000.8085513999686,None,1000.8085513999686,None,left,0,1.1412510997615755,1000.8085513999686,None,1001.9811962000094,None,,,,,,,,,,,,,,,,,,,,,,,,,,,,,,,,,,42,Male,52,001,2021_Mar_10_1906,cal_abstract,2020.2.4,59.97943908723039,
,,,,Cond,stimuli/Sad/58.jpg,left,,,,,,,,,,,,0,23,23,23,,,,,,,,,,,,,,,,,,,,,,,,,,,,,,,,,,,,,,,,0,,,,,,,,,,,,,,,,,,,,,,,,,1002.7682562000118,None,1002.7682562000118,None,right,0,1.542285899631679,1002.7682562000118,None,1004.3399314000271,None,,,,,,,,,,,,,,,,,,,,,,,,,,,,,,,,,,42,Male,52,001,2021_Mar_10_1906,cal_abstract,2020.2.4,59.97943908723039,
,,,,Fix2,stimuli/Old/46.jpg,left,,,,,,,,,,,,0,24,24,24,,,,,,,,,,,,,,,,,,,,,,,,,,,,,,,,,,,,,,,,1,,,,,,,,,,,,,,,,,,,,,,,,,1005.1101002003998,None,1005.1101002003998,None,left,1,3.095820900052786,1005.1101002003998,None,1008.2384561002254,None,,,,,,,,,,,,,,,,,,,,,,,,,,,,,,,,,,42,Male,52,001,2021_Mar_10_1906,cal_abstract,2020.2.4,59.97943908723039,
,,,,Cond,stimuli/Sad/57.jpg,right,,,,,,,,,,,,0,25,25,25,,,,,,,,,,,,,,,,,,,,,,,,,,,,,,,,,,,,,,,,1,,,,,,,,,,,,,,,,,,,,,,,,,1009.0235053002834,None,1009.0235053002834,None,right,1,2.5007539996877313,1009.0235053002834,None,1011.5515449000522,None,,,,,,,,,,,,,,,,,,,,,,,,,,,,,,,,,,42,Male,52,001,2021_Mar_10_1906,cal_abstract,2020.2.4,59.97943908723039,
,,,,Cond,stimuli/Sad/2.jpg,left,,,,,,,,,,,,0,26,26,26,,,,,,,,,,,,,,,,,,,,,,,,,,,,,,,,,,,,,,,,1,,,,,,,,,,,,,,,,,,,,,,,,,1012.348869800102,None,1012.348869800102,None,left,1,1.3444596999324858,1012.348869800102,None,1013.7157103000209,None,,,,,,,,,,,,,,,,,,,,,,,,,,,,,,,,,,42,Male,52,001,2021_Mar_10_1906,cal_abstract,2020.2.4,59.97943908723039,
,,,,Fix1,stimuli/Dangerous/32.jpg,right,,,,,,,,,,,,0,27,27,27,,,,,,,,,,,,,,,,,,,,,,,,,,,,,,,,,,,,,,,,0,,,,,,,,,,,,,,,,,,,,,,,,,1014.4893126999959,None,1014.4893126999959,None,left,0,1.0422167000360787,1014.4893126999959,None,1015.5504377000034,None,,,,,,,,,,,,,,,,,,,,,,,,,,,,,,,,,,42,Male,52,001,2021_Mar_10_1906,cal_abstract,2020.2.4,59.97943908723039,
,,,,Fix1,stimuli/Dangerous/48.jpg,right,,,,,,,,,,,,0,28,28,28,,,,,,,,,,,,,,,,,,,,,,,,,,,,,,,,,,,,,,,,0,,,,,,,,,,,,,,,,,,,,,,,,,1016.35114839999,None,1016.35114839999,None,left,0,4.579931900370866,1016.35114839999,None,1020.9589050002396,None,,,,,,,,,,,,,,,,,,,,,,,,,,,,,,,,,,42,Male,52,001,2021_Mar_10_1906,cal_abstract,2020.2.4,59.97943908723039,
,,,,Fix2,stimuli/Old/32.jpg,left,,,,,,,,,,,,0,29,29,29,,,,,,,,,,,,,,,,,,,,,,,,,,,,,,,,,,,,,,,,1,,,,,,,,,,,,,,,,,,,,,,,,,1021.7316968999803,None,1021.7316968999803,None,left,1,1.6265250998549163,1021.7316968999803,None,1023.380671299994,None,,,,,,,,,,,,,,,,,,,,,,,,,,,,,,,,,,42,Male,52,001,2021_Mar_10_1906,cal_abstract,2020.2.4,59.97943908723039,
,,,,Cond,stimuli/Sad/13.jpg,right,,,,,,,,,,,,0,30,30,30,,,,,,,,,,,,,,,,,,,,,,,,,,,,,,,,,,,,,,,,0,,,,,,,,,,,,,,,,,,,,,,,,,1024.1628829999827,None,1024.1628829999827,None,left,0,3.4182917000725865,1024.1628829999827,None,1027.6113766999915,None,,,,,,,,,,,,,,,,,,,,,,,,,,,,,,,,,,42,Male,52,001,2021_Mar_10_1906,cal_abstract,2020.2.4,59.97943908723039,
,,,,Cond,stimuli/Sad/24.jpg,left,,,,,,,,,,,,0,31,31,31,,,,,,,,,,,,,,,,,,,,,,,,,,,,,,,,,,,,,,,,1,,,,,,,,,,,,,,,,,,,,,,,,,1028.3860828001052,None,1028.3860828001052,None,left,1,0.8513378002680838,1028.3860828001052,None,1029.2591093000956,None,,,,,,,,,,,,,,,,,,,,,,,,,,,,,,,,,,42,Male,52,001,2021_Mar_10_1906,cal_abstract,2020.2.4,59.97943908723039,
,,,,Fix2,stimuli/Old/20.jpg,left,,,,,,,,,,,,0,32,32,32,,,,,,,,,,,,,,,,,,,,,,,,,,,,,,,,,,,,,,,,1,,,,,,,,,,,,,,,,,,,,,,,,,1030.0612598001026,None,1030.0612598001026,None,left,1,1.7275291001424193,1030.0612598001026,None,1031.8174501000904,None,,,,,,,,,,,,,,,,,,,,,,,,,,,,,,,,,,42,Male,52,001,2021_Mar_10_1906,cal_abstract,2020.2.4,59.97943908723039,
,,,,Fix1,stimuli/Dangerous/2.jpg,right,,,,,,,,,,,,0,33,33,33,,,,,,,,,,,,,,,,,,,,,,,,,,,,,,,,,,,,,,,,0,,,,,,,,,,,,,,,,,,,,,,,,,1032.592850500252,None,1032.592850500252,None,left,0,4.899366700090468,1032.592850500252,None,1037.5323250000365,None,,,,,,,,,,,,,,,,,,,,,,,,,,,,,,,,,,42,Male,52,001,2021_Mar_10_1906,cal_abstract,2020.2.4,59.97943908723039,
,,,,Cond,stimuli/Sad/45.jpg,left,,,,,,,,,,,,0,34,34,34,,,,,,,,,,,,,,,,,,,,,,,,,,,,,,,,,,,,,,,,1,,,,,,,,,,,,,,,,,,,,,,,,,1038.2966555003077,None,1038.2966555003077,None,left,1,1.9445166997611523,1038.2966555003077,None,1040.2637586002238,None,,,,,,,,,,,,,,,,,,,,,,,,,,,,,,,,,,42,Male,52,001,2021_Mar_10_1906,cal_abstract,2020.2.4,59.97943908723039,
,,,,Fix2,stimuli/Old/50.jpg,left,,,,,,,,,,,,0,35,35,35,,,,,,,,,,,,,,,,,,,,,,,,,,,,,,,,,,,,,,,,0,,,,,,,,,,,,,,,,,,,,,,,,,1041.072010200005,None,1041.072010200005,None,right,0,3.0616392004303634,1041.072010200005,None,1044.1626062002033,None,,,,,,,,,,,,,,,,,,,,,,,,,,,,,,,,,,42,Male,52,001,2021_Mar_10_1906,cal_abstract,2020.2.4,59.97943908723039,
,,,,Fix1,stimuli/Dangerous/16.jpg,right,,,,,,,,,,,,0,36,36,36,,,,,,,,,,,,,,,,,,,,,,,,,,,,,,,,,,,,,,,,0,,,,,,,,,,,,,,,,,,,,,,,,,1044.9428980001248,None,1044.9428980001248,None,left,0,1.4082013997249305,1044.9428980001248,None,1046.3739807000384,None,,,,,,,,,,,,,,,,,,,,,,,,,,,,,,,,,,42,Male,52,001,2021_Mar_10_1906,cal_abstract,2020.2.4,59.97943908723039,
,,,,Fix1,stimuli/Dangerous/35.jpg,right,,,,,,,,,,,,0,37,37,37,,,,,,,,,,,,,,,,,,,,,,,,,,,,,,,,,,,,,,,,1,,,,,,,,,,,,,,,,,,,,,,,,,1047.1779607003555,None,1047.1779607003555,None,right,1,0.8235492999665439,1047.1779607003555,None,1048.028187900316,None,,,,,,,,,,,,,,,,,,,,,,,,,,,,,,,,,,42,Male,52,001,2021_Mar_10_1906,cal_abstract,2020.2.4,59.97943908723039,
,,,,Fix1,stimuli/Dangerous/57.jpg,right,,,,,,,,,,,,0,38,38,38,,,,,,,,,,,,,,,,,,,,,,,,,,,,,,,,,,,,,,,,1,,,,,,,,,,,,,,,,,,,,,,,,,1048.811264900025,None,1048.811264900025,None,right,1,1.5829404001124203,1048.811264900025,None,1050.419297600165,None,,,,,,,,,,,,,,,,,,,,,,,,,,,,,,,,,,42,Male,52,001,2021_Mar_10_1906,cal_abstract,2020.2.4,59.97943908723039,
,,,,Cond,stimuli/Sad/16.jpg,left,,,,,,,,,,,,0,39,39,39,,,,,,,,,,,,,,,,,,,,,,,,,,,,,,,,,,,,,,,,0,,,,,,,,,,,,,,,,,,,,,,,,,1051.1964434003457,None,1051.1964434003457,None,right,0,1.6497490000911057,1051.1964434003457,None,1052.877680100035,None,,,,,,,,,,,,,,,,,,,,,,,,,,,,,,,,,,42,Male,52,001,2021_Mar_10_1906,cal_abstract,2020.2.4,59.97943908723039,
,,,,Fix2,stimuli/Old/58.jpg,left,,,,,,,,,,,,0,40,40,40,,,,,,,,,,,,,,,,,,,,,,,,,,,,,,,,,,,,,,,,0,,,,,,,,,,,,,,,,,,,,,,,,,1053.6354448003694,None,1053.6354448003694,None,right,0,0.5021413001231849,1053.6354448003694,None,1054.1653428003192,None,,,,,,,,,,,,,,,,,,,,,,,,,,,,,,,,,,42,Male,52,001,2021_Mar_10_1906,cal_abstract,2020.2.4,59.97943908723039,
,,,,Fix1,stimuli/Dangerous/36.jpg,right,,,,,,,,,,,,0,41,41,41,,,,,,,,,,,,,,,,,,,,,,,,,,,,,,,,,,,,,,,,0,,,,,,,,,,,,,,,,,,,,,,,,,1054.9459951003082,None,1054.9459951003082,None,left,0,1.1314868000335991,1054.9459951003082,None,1056.0975843002088,None,,,,,,,,,,,,,,,,,,,,,,,,,,,,,,,,,,42,Male,52,001,2021_Mar_10_1906,cal_abstract,2020.2.4,59.97943908723039,
,,,,Fix2,stimuli/Old/35.jpg,left,,,,,,,,,,,,0,42,42,42,,,,,,,,,,,,,,,,,,,,,,,,,,,,,,,,,,,,,,,,1,,,,,,,,,,,,,,,,,,,,,,,,,1056.875421100296,None,1056.875421100296,None,left,1,1.649011000059545,1056.875421100296,None,1058.556510400027,None,,,,,,,,,,,,,,,,,,,,,,,,,,,,,,,,,,42,Male,52,001,2021_Mar_10_1906,cal_abstract,2020.2.4,59.97943908723039,
,,,,Cond,stimuli/Sad/25.jpg,right,,,,,,,,,,,,0,43,43,43,,,,,,,,,,,,,,,,,,,,,,,,,,,,,,,,,,,,,,,,1,,,,,,,,,,,,,,,,,,,,,,,,,1059.3258577003144,None,1059.3258577003144,None,right,1,3.508422000333667,1059.3258577003144,None,1062.858640700113,None,,,,,,,,,,,,,,,,,,,,,,,,,,,,,,,,,,42,Male,52,001,2021_Mar_10_1906,cal_abstract,2020.2.4,59.97943908723039,
,,,,Cond,stimuli/Sad/20.jpg,left,,,,,,,,,,,,0,44,44,44,,,,,,,,,,,,,,,,,,,,,,,,,,,,,,,,,,,,,,,,1,,,,,,,,,,,,,,,,,,,,,,,,,1063.6352444002405,None,1063.6352444002405,None,left,1,1.078263800125569,1063.6352444002405,None,1064.7411351003684,None,,,,,,,,,,,,,,,,,,,,,,,,,,,,,,,,,,42,Male,52,001,2021_Mar_10_1906,cal_abstract,2020.2.4,59.97943908723039,
,,,,Fix1,stimuli/Dangerous/21.jpg,right,,,,,,,,,,,,0,45,45,45,,,,,,,,,,,,,,,,,,,,,,,,,,,,,,,,,,,,,,,,1,,,,,,,,,,,,,,,,,,,,,,,,,1065.5291856001131,None,1065.5291856001131,None,right,1,0.8425702000968158,1065.5291856001131,None,1066.391947899945,None,,,,,,,,,,,,,,,,,,,,,,,,,,,,,,,,,,42,Male,52,001,2021_Mar_10_1906,cal_abstract,2020.2.4,59.97943908723039,
,,,,Cond,stimuli/Sad/29.jpg,left,,,,,,,,,,,,0,46,46,46,,,,,,,,,,,,,,,,,,,,,,,,,,,,,,,,,,,,,,,,1,,,,,,,,,,,,,,,,,,,,,,,,,1067.1650602002628,None,1067.1650602002628,None,left,1,1.2711844998411834,1067.1650602002628,None,1068.4537663999945,None,,,,,,,,,,,,,,,,,,,,,,,,,,,,,,,,,,42,Male,52,001,2021_Mar_10_1906,cal_abstract,2020.2.4,59.97943908723039,
,,,,Fix1,stimuli/Dangerous/59.jpg,right,,,,,,,,,,,,0,47,47,47,,,,,,,,,,,,,,,,,,,,,,,,,,,,,,,,,,,,,,,,0,,,,,,,,,,,,,,,,,,,,,,,,,1069.2457717000507,None,1069.2457717000507,None,left,0,0.5781660000793636,1069.2457717000507,None,1069.8643343001604,None,,,,,,,,,,,,,,,,,,,,,,,,,,,,,,,,,,42,Male,52,001,2021_Mar_10_1906,cal_abstract,2020.2.4,59.97943908723039,
,,,,Fix2,stimuli/Old/31.jpg,left,,,,,,,,,,,,0,48,48,48,,,,,,,,,,,,,,,,,,,,,,,,,,,,,,,,,,,,,,,,1,,,,,,,,,,,,,,,,,,,,,,,,,1070.6583128003404,None,1070.6583128003404,None,left,1,0.8468141998164356,1070.6583128003404,None,1071.536785400007,None,,,,,,,,,,,,,,,,,,,,,,,,,,,,,,,,,,42,Male,52,001,2021_Mar_10_1906,cal_abstract,2020.2.4,59.97943908723039,
,,,,Fix2,stimuli/Old/21.jpg,left,,,,,,,,,,,,0,49,49,49,,,,,,,,,,,,,,,,,,,,,,,,,,,,,,,,,,,,,,,,0,,,,,,,,,,,,,,,,,,,,,,,,,1072.3266871003434,None,1072.3266871003434,None,right,0,0.5808695997111499,1072.3266871003434,None,1072.9525781003758,None,,,,,,,,,,,,,,,,,,,,,,,,,,,,,,,,,,42,Male,52,001,2021_Mar_10_1906,cal_abstract,2020.2.4,59.97943908723039,
,,,,Fix1,stimuli/Dangerous/0.jpg,right,,,,,,,,,,,,0,50,50,50,,,,,,,,,,,,,,,,,,,,,,,,,,,,,,,,,,,,,,,,0,,,,,,,,,,,,,,,,,,,,,,,,,1073.7144288001582,None,1073.7144288001582,None,left,0,1.3982009999454021,1073.7144288001582,None,1075.1321640000679,None,,,,,,,,,,,,,,,,,,,,,,,,,,,,,,,,,,42,Male,52,001,2021_Mar_10_1906,cal_abstract,2020.2.4,59.97943908723039,
,,,,Fix1,stimuli/Dangerous/26.jpg,right,,,,,,,,,,,,0,51,51,51,,,,,,,,,,,,,,,,,,,,,,,,,,,,,,,,,,,,,,,,1,,,,,,,,,,,,,,,,,,,,,,,,,1075.9126932001673,None,1075.9126932001673,None,right,1,1.5757719003595412,1075.9126932001673,None,1077.5228825001977,None,,,,,,,,,,,,,,,,,,,,,,,,,,,,,,,,,,42,Male,52,001,2021_Mar_10_1906,cal_abstract,2020.2.4,59.97943908723039,
,,,,Cond,stimuli/Sad/11.jpg,left,,,,,,,,,,,,0,52,52,52,,,,,,,,,,,,,,,,,,,,,,,,,,,,,,,,,,,,,,,,1,,,,,,,,,,,,,,,,,,,,,,,,,1078.2914495002478,None,1078.2914495002478,None,left,1,1.1285442998632789,1078.2914495002478,None,1079.4452096000314,None,,,,,,,,,,,,,,,,,,,,,,,,,,,,,,,,,,42,Male,52,001,2021_Mar_10_1906,cal_abstract,2020.2.4,59.97943908723039,
,,,,Fix2,stimuli/Old/26.jpg,left,,,,,,,,,,,,0,53,53,53,,,,,,,,,,,,,,,,,,,,,,,,,,,,,,,,,,,,,,,,0,,,,,,,,,,,,,,,,,,,,,,,,,1080.2090497999452,None,1080.2090497999452,None,right,0,0.5539919999428093,1080.2090497999452,None,1080.7875757999718,None,,,,,,,,,,,,,,,,,,,,,,,,,,,,,,,,,,42,Male,52,001,2021_Mar_10_1906,cal_abstract,2020.2.4,59.97943908723039,
,,,,Fix1,stimuli/Dangerous/41.jpg,right,,,,,,,,,,,,0,54,54,54,,,,,,,,,,,,,,,,,,,,,,,,,,,,,,,,,,,,,,,,0,,,,,,,,,,,,,,,,,,,,,,,,,1081.5612987000495,None,1081.5612987000495,None,left,0,0.6320543000474572,1081.5612987000495,None,1082.2121916003525,None,,,,,,,,,,,,,,,,,,,,,,,,,,,,,,,,,,42,Male,52,001,2021_Mar_10_1906,cal_abstract,2020.2.4,59.97943908723039,
,,,,Cond,stimuli/Sad/1.jpg,left,,,,,,,,,,,,0,55,55,55,,,,,,,,,,,,,,,,,,,,,,,,,,,,,,,,,,,,,,,,0,,,,,,,,,,,,,,,,,,,,,,,,,1082.9874571999535,None,1082.9874571999535,None,right,0,0.7984906998462975,1082.9874571999535,None,1083.809158100281,None,,,,,,,,,,,,,,,,,,,,,,,,,,,,,,,,,,42,Male,52,001,2021_Mar_10_1906,cal_abstract,2020.2.4,59.97943908723039,
,,,,Fix2,stimuli/Old/42.jpg,left,,,,,,,,,,,,0,56,56,56,,,,,,,,,,,,,,,,,,,,,,,,,,,,,,,,,,,,,,,,1,,,,,,,,,,,,,,,,,,,,,,,,,1084.6082586999983,None,1084.6082586999983,None,left,1,1.241835799999535,1084.6082586999983,None,1085.8760231002234,None,,,,,,,,,,,,,,,,,,,,,,,,,,,,,,,,,,42,Male,52,001,2021_Mar_10_1906,cal_abstract,2020.2.4,59.97943908723039,
,,,,Fix1,stimuli/Dangerous/52.jpg,right,,,,,,,,,,,,0,57,57,57,,,,,,,,,,,,,,,,,,,,,,,,,,,,,,,,,,,,,,,,1,,,,,,,,,,,,,,,,,,,,,,,,,1086.6550736003555,None,1086.6550736003555,None,right,1,0.9166542999446392,1086.6550736003555,None,1087.5887882001698,None,,,,,,,,,,,,,,,,,,,,,,,,,,,,,,,,,,42,Male,52,001,2021_Mar_10_1906,cal_abstract,2020.2.4,59.97943908723039,
,,,,Fix1,stimuli/Dangerous/23.jpg,right,,,,,,,,,,,,0,58,58,58,,,,,,,,,,,,,,,,,,,,,,,,,,,,,,,,,,,,,,,,0,,,,,,,,,,,,,,,,,,,,,,,,,1088.3771957000718,None,1088.3771957000718,None,left,0,0.8579559000208974,1088.3771957000718,None,1089.256032800302,None,,,,,,,,,,,,,,,,,,,,,,,,,,,,,,,,,,42,Male,52,001,2021_Mar_10_1906,cal_abstract,2020.2.4,59.97943908723039,
,,,,Cond,stimuli/Sad/18.jpg,left,,,,,,,,,,,,0,59,59,59,,,,,,,,,,,,,,,,,,,,,,,,,,,,,,,,,,,,,,,,1,,,,,,,,,,,,,,,,,,,,,,,,,1090.03487520013,None,1090.03487520013,None,left,1,1.4667201996780932,1090.03487520013,None,1091.526636700146,None,,,,,,,,,,,,,,,,,,,,,,,,,,,,,,,,,,42,Male,52,001,2021_Mar_10_1906,cal_abstract,2020.2.4,59.97943908723039,
,,,,Fix1,stimuli/Dangerous/12.jpg,right,,,,,,,,,,,,0,60,60,60,,,,,,,,,,,,,,,,,,,,,,,,,,,,,,,,,,,,,,,,1,,,,,,,,,,,,,,,,,,,,,,,,,1092.2948024002835,None,1092.2948024002835,None,right,1,1.177061699796468,1092.2948024002835,None,1093.5025386000052,None,,,,,,,,,,,,,,,,,,,,,,,,,,,,,,,,,,42,Male,52,001,2021_Mar_10_1906,cal_abstract,2020.2.4,59.97943908723039,
,,,,Cond,stimuli/Sad/40.jpg,left,,,,,,,,,,,,0,61,61,61,,,,,,,,,,,,,,,,,,,,,,,,,,,,,,,,,,,,,,,,0,,,,,,,,,,,,,,,,,,,,,,,,,1094.2652455000207,None,1094.2652455000207,None,right,0,0.5040943999774754,1094.2652455000207,None,1094.8071945002303,None,,,,,,,,,,,,,,,,,,,,,,,,,,,,,,,,,,42,Male,52,001,2021_Mar_10_1906,cal_abstract,2020.2.4,59.97943908723039,
,,,,Fix1,stimuli/Dangerous/28.jpg,right,,,,,,,,,,,,0,62,62,62,,,,,,,,,,,,,,,,,,,,,,,,,,,,,,,,,,,,,,,,1,,,,,,,,,,,,,,,,,,,,,,,,,1095.5846274001524,None,1095.5846274001524,None,right,1,0.6914273002184927,1095.5846274001524,None,1096.311658100225,None,,,,,,,,,,,,,,,,,,,,,,,,,,,,,,,,,,42,Male,52,001,2021_Mar_10_1906,cal_abstract,2020.2.4,59.97943908723039,
,,,,Fix2,stimuli/Old/8.jpg,left,,,,,,,,,,,,0,63,63,63,,,,,,,,,,,,,,,,,,,,,,,,,,,,,,,,,,,,,,,,0,,,,,,,,,,,,,,,,,,,,,,,,,1097.0784621001221,None,1097.0784621001221,None,right,0,0.8149125999771059,1097.0784621001221,None,1097.9214874999598,None,,,,,,,,,,,,,,,,,,,,,,,,,,,,,,,,,,42,Male,52,001,2021_Mar_10_1906,cal_abstract,2020.2.4,59.97943908723039,
,,,,Cond,stimuli/Sad/17.jpg,right,,,,,,,,,,,,0,64,64,64,,,,,,,,,,,,,,,,,,,,,,,,,,,,,,,,,,,,,,,,1,,,,,,,,,,,,,,,,,,,,,,,,,1098.6885374002159,None,1098.6885374002159,None,right,1,0.9701341004110873,1098.6885374002159,None,1099.6965399002656,None,,,,,,,,,,,,,,,,,,,,,,,,,,,,,,,,,,42,Male,52,001,2021_Mar_10_1906,cal_abstract,2020.2.4,59.97943908723039,
,,,,Fix1,stimuli/Dangerous/30.jpg,right,,,,,,,,,,,,0,65,65,65,,,,,,,,,,,,,,,,,,,,,,,,,,,,,,,,,,,,,,,,0,,,,,,,,,,,,,,,,,,,,,,,,,1100.46896760026,None,1100.46896760026,None,left,0,0.7436333997175097,1100.46896760026,None,1101.2372039002366,None,,,,,,,,,,,,,,,,,,,,,,,,,,,,,,,,,,42,Male,52,001,2021_Mar_10_1906,cal_abstract,2020.2.4,59.97943908723039,
,,,,Cond,stimuli/Sad/6.jpg,left,,,,,,,,,,,,0,66,66,66,,,,,,,,,,,,,,,,,,,,,,,,,,,,,,,,,,,,,,,,0,,,,,,,,,,,,,,,,,,,,,,,,,1102.0121745001525,None,1102.0121745001525,None,right,0,0.9504549996927381,1102.0121745001525,None,1102.9931063000113,None,,,,,,,,,,,,,,,,,,,,,,,,,,,,,,,,,,42,Male,52,001,2021_Mar_10_1906,cal_abstract,2020.2.4,59.97943908723039,
,,,,Cond,stimuli/Sad/30.jpg,right,,,,,,,,,,,,0,67,67,67,,,,,,,,,,,,,,,,,,,,,,,,,,,,,,,,,,,,,,,,1,,,,,,,,,,,,,,,,,,,,,,,,,1103.7603569002822,None,1103.7603569002822,None,right,1,0.5721002998761833,1103.7603569002822,None,1104.3623669003136,None,,,,,,,,,,,,,,,,,,,,,,,,,,,,,,,,,,42,Male,52,001,2021_Mar_10_1906,cal_abstract,2020.2.4,59.97943908723039,
,,,,Fix1,stimuli/Dangerous/53.jpg,right,,,,,,,,,,,,0,68,68,68,,,,,,,,,,,,,,,,,,,,,,,,,,,,,,,,,,,,,,,,0,,,,,,,,,,,,,,,,,,,,,,,,,1105.1510942000896,None,1105.1510942000896,None,left,0,0.6886421996168792,1105.1510942000896,None,1105.8640148001723,None,,,,,,,,,,,,,,,,,,,,,,,,,,,,,,,,,,42,Male,52,001,2021_Mar_10_1906,cal_abstract,2020.2.4,59.97943908723039,
,,,,Fix1,stimuli/Dangerous/44.jpg,right,,,,,,,,,,,,0,69,69,69,,,,,,,,,,,,,,,,,,,,,,,,,,,,,,,,,,,,,,,,0,,,,,,,,,,,,,,,,,,,,,,,,,1106.6361813000403,None,1106.6361813000403,None,left,0,0.7797257001511753,1106.6361813000403,None,1107.4377864999697,None,,,,,,,,,,,,,,,,,,,,,,,,,,,,,,,,,,42,Male,52,001,2021_Mar_10_1906,cal_abstract,2020.2.4,59.97943908723039,
,,,,Cond,stimuli/Sad/27.jpg,left,,,,,,,,,,,,0,70,70,70,,,,,,,,,,,,,,,,,,,,,,,,,,,,,,,,,,,,,,,,0,,,,,,,,,,,,,,,,,,,,,,,,,1108.198166300077,None,1108.198166300077,None,right,0,1.2582000000402331,1108.198166300077,None,1109.486080700066,None,,,,,,,,,,,,,,,,,,,,,,,,,,,,,,,,,,42,Male,52,001,2021_Mar_10_1906,cal_abstract,2020.2.4,59.97943908723039,
,,,,Cond,stimuli/Sad/51.jpg,right,,,,,,,,,,,,0,71,71,71,,,,,,,,,,,,,,,,,,,,,,,,,,,,,,,,,,,,,,,,0,,,,,,,,,,,,,,,,,,,,,,,,,1110.2398077002726,None,1110.2398077002726,None,left,0,0.4478462999686599,1110.2398077002726,None,1110.7184766000137,None,,,,,,,,,,,,,,,,,,,,,,,,,,,,,,,,,,42,Male,52,001,2021_Mar_10_1906,cal_abstract,2020.2.4,59.97943908723039,
,,,,Cond,stimuli/Sad/15.jpg,left,,,,,,,,,,,,0,72,72,72,,,,,,,,,,,,,,,,,,,,,,,,,,,,,,,,,,,,,,,,0,,,,,,,,,,,,,,,,,,,,,,,,,1111.4885764000937,None,1111.4885764000937,None,right,0,0.9771162997931242,1111.4885764000937,None,1112.4847790002823,None,,,,,,,,,,,,,,,,,,,,,,,,,,,,,,,,,,42,Male,52,001,2021_Mar_10_1906,cal_abstract,2020.2.4,59.97943908723039,
,,,,Fix2,stimuli/Old/0.jpg,left,,,,,,,,,,,,0,73,73,73,,,,,,,,,,,,,,,,,,,,,,,,,,,,,,,,,,,,,,,,0,,,,,,,,,,,,,,,,,,,,,,,,,1113.2505703000352,None,1113.2505703000352,None,right,0,1.6349441003985703,1113.2505703000352,None,1114.918498700019,None,,,,,,,,,,,,,,,,,,,,,,,,,,,,,,,,,,42,Male,52,001,2021_Mar_10_1906,cal_abstract,2020.2.4,59.97943908723039,
,,,,Fix2,stimuli/Old/17.jpg,left,,,,,,,,,,,,0,74,74,74,,,,,,,,,,,,,,,,,,,,,,,,,,,,,,,,,,,,,,,,1,,,,,,,,,,,,,,,,,,,,,,,,,1115.6933959000744,None,1115.6933959000744,None,left,1,1.7852754998020828,1115.6933959000744,None,1117.5023390999995,None,,,,,,,,,,,,,,,,,,,,,,,,,,,,,,,,,,42,Male,52,001,2021_Mar_10_1906,cal_abstract,2020.2.4,59.97943908723039,
,,,,Cond,stimuli/Sad/37.jpg,right,,,,,,,,,,,,0,75,75,75,,,,,,,,,,,,,,,,,,,,,,,,,,,,,,,,,,,,,,,,0,,,,,,,,,,,,,,,,,,,,,,,,,1118.2754886001348,None,1118.2754886001348,None,left,0,1.6483725998550653,1118.2754886001348,None,1119.9559618001804,None,,,,,,,,,,,,,,,,,,,,,,,,,,,,,,,,,,42,Male,52,001,2021_Mar_10_1906,cal_abstract,2020.2.4,59.97943908723039,
,,,,Fix2,stimuli/Old/47.jpg,left,,,,,,,,,,,,0,76,76,76,,,,,,,,,,,,,,,,,,,,,,,,,,,,,,,,,,,,,,,,1,,,,,,,,,,,,,,,,,,,,,,,,,1120.7229686002247,None,1120.7229686002247,None,left,1,1.003090700134635,1120.7229686002247,None,1121.7465370004065,None,,,,,,,,,,,,,,,,,,,,,,,,,,,,,,,,,,42,Male,52,001,2021_Mar_10_1906,cal_abstract,2020.2.4,59.97943908723039,
,,,,Fix2,stimuli/Old/16.jpg,left,,,,,,,,,,,,0,77,77,77,,,,,,,,,,,,,,,,,,,,,,,,,,,,,,,,,,,,,,,,1,,,,,,,,,,,,,,,,,,,,,,,,,1122.5325983003713,None,1122.5325983003713,None,left,1,2.4579257001169026,1122.5325983003713,None,1125.0079634003341,None,,,,,,,,,,,,,,,,,,,,,,,,,,,,,,,,,,42,Male,52,001,2021_Mar_10_1906,cal_abstract,2020.2.4,59.97943908723039,
,,,,Cond,stimuli/Sad/8.jpg,right,,,,,,,,,,,,0,78,78,78,,,,,,,,,,,,,,,,,,,,,,,,,,,,,,,,,,,,,,,,1,,,,,,,,,,,,,,,,,,,,,,,,,1125.8033288000152,None,1125.8033288000152,None,right,1,2.1555762998759747,1125.8033288000152,None,1127.9886721000075,None,,,,,,,,,,,,,,,,,,,,,,,,,,,,,,,,,,42,Male,52,001,2021_Mar_10_1906,cal_abstract,2020.2.4,59.97943908723039,
,,,,Cond,stimuli/Sad/3.jpg,left,,,,,,,,,,,,0,79,79,79,,,,,,,,,,,,,,,,,,,,,,,,,,,,,,,,,,,,,,,,0,,,,,,,,,,,,,,,,,,,,,,,,,1128.7776391999796,None,1128.7776391999796,None,right,0,1.8916120999492705,1128.7776391999796,None,1130.6887663002126,None,,,,,,,,,,,,,,,,,,,,,,,,,,,,,,,,,,42,Male,52,001,2021_Mar_10_1906,cal_abstract,2020.2.4,59.97943908723039,
,,,,Cond,stimuli/Sad/53.jpg,right,,,,,,,,,,,,0,80,80,80,,,,,,,,,,,,,,,,,,,,,,,,,,,,,,,,,,,,,,,,0,,,,,,,,,,,,,,,,,,,,,,,,,1131.475673200097,None,1131.475673200097,None,left,0,1.255564599763602,1131.475673200097,None,1132.7535425000824,None,,,,,,,,,,,,,,,,,,,,,,,,,,,,,,,,,,42,Male,52,001,2021_Mar_10_1906,cal_abstract,2020.2.4,59.97943908723039,
,,,,Cond,stimuli/Sad/43.jpg,left,,,,,,,,,,,,0,81,81,81,,,,,,,,,,,,,,,,,,,,,,,,,,,,,,,,,,,,,,,,0,,,,,,,,,,,,,,,,,,,,,,,,,1133.5631800000556,None,1133.5631800000556,None,right,0,1.225403600372374,1133.5631800000556,None,1134.8168060001917,None,,,,,,,,,,,,,,,,,,,,,,,,,,,,,,,,,,42,Male,52,001,2021_Mar_10_1906,cal_abstract,2020.2.4,59.97943908723039,
,,,,Cond,stimuli/Sad/19.jpg,right,,,,,,,,,,,,0,82,82,82,,,,,,,,,,,,,,,,,,,,,,,,,,,,,,,,,,,,,,,,1,,,,,,,,,,,,,,,,,,,,,,,,,1135.595764100086,None,1135.595764100086,None,right,1,0.8128125001676381,1135.595764100086,None,1136.4390921001323,None,,,,,,,,,,,,,,,,,,,,,,,,,,,,,,,,,,42,Male,52,001,2021_Mar_10_1906,cal_abstract,2020.2.4,59.97943908723039,
,,,,Fix1,stimuli/Dangerous/9.jpg,right,,,,,,,,,,,,0,83,83,83,,,,,,,,,,,,,,,,,,,,,,,,,,,,,,,,,,,,,,,,1,,,,,,,,,,,,,,,,,,,,,,,,,1137.206557100173,None,1137.206557100173,None,right,1,1.586267199832946,1137.206557100173,None,1138.815448100213,None,,,,,,,,,,,,,,,,,,,,,,,,,,,,,,,,,,42,Male,52,001,2021_Mar_10_1906,cal_abstract,2020.2.4,59.97943908723039,
,,,,Fix2,stimuli/Old/10.jpg,left,,,,,,,,,,,,0,84,84,84,,,,,,,,,,,,,,,,,,,,,,,,,,,,,,,,,,,,,,,,1,,,,,,,,,,,,,,,,,,,,,,,,,1139.6149687003344,None,1139.6149687003344,None,left,1,1.09854679973796,1139.6149687003344,None,1140.744555500336,None,,,,,,,,,,,,,,,,,,,,,,,,,,,,,,,,,,42,Male,52,001,2021_Mar_10_1906,cal_abstract,2020.2.4,59.97943908723039,
,,,,Fix2,stimuli/Old/41.jpg,left,,,,,,,,,,,,0,85,85,85,,,,,,,,,,,,,,,,,,,,,,,,,,,,,,,,,,,,,,,,1,,,,,,,,,,,,,,,,,,,,,,,,,1141.5245515001006,None,1141.5245515001006,None,left,1,2.038730700034648,1141.5245515001006,None,1143.5924846003763,None,,,,,,,,,,,,,,,,,,,,,,,,,,,,,,,,,,42,Male,52,001,2021_Mar_10_1906,cal_abstract,2020.2.4,59.97943908723039,
,,,,Fix2,stimuli/Old/39.jpg,left,,,,,,,,,,,,0,86,86,86,,,,,,,,,,,,,,,,,,,,,,,,,,,,,,,,,,,,,,,,1,,,,,,,,,,,,,,,,,,,,,,,,,1144.357066300232,None,1144.357066300232,None,left,1,1.1022503999993205,1144.357066300232,None,1145.490797100123,None,,,,,,,,,,,,,,,,,,,,,,,,,,,,,,,,,,42,Male,52,001,2021_Mar_10_1906,cal_abstract,2020.2.4,59.97943908723039,
